ExperimentName,Group,Participant,Trial,Condition,Response,CompQuestion.RT,Correct,q1,Question,Question.RESP,Question.RT,S1.RT,S2.RT,S3.RT,S4.RT,S5.RT,S6.RT,S7.RT,S8.RT,S9.RT,S10.RT,S11.RT,S12.RT,S13.RT,S14.RT,S15.RT,S16.RT,S17.RT,S18.RT,S19.RT,S20.RT,S21.RT,S22.RT,S23.RT,S24.RT,S25.RT,S26.RT,S27.RT,S28.RT,S29.RT,S30.RT,S31.RT,S32.RT,S33.RT,S34.RT,S35.RT,Study,Item,Violation,w1,w2,w3,w4,w5,w6,w7,w8,w9,w10,w11,w12,w13,w14,w15,w16,w17,w18,w19,w20,w21,w22,w23,w24,w25,w26,w27,w28,w29,w30,w31,w32,w33,w34,w35
TeAsP_List2_1,Croatian,242,31,Prog_LateClosure,m,1821,m,Did the couple want to leave?,yes,,,,,,287,287,282,260,305,281,301,271,347,320,346,277,343,459,396,497,436,278,290,277,320,348,302,287,322,0,0,0,0,0,0,0,Aspect,7,no,,,,The,couple,sitting,next,to,me,at,the,restaurant,got,up,to,leave.,As,I,was,watching,the,drunk,man,he,tripped,over,my,chair.,?,?,?,?,?,?,?
TeAsP_List2_1,Croatian,234,58,Prog_LateClosure,m,1941,m,Did the couple want to leave?,yes,,,,,,356,156,178,170,167,190,189,167,189,135,181,184,193,176,219,206,198,147,178,174,186,173,241,203,195,0,0,0,0,0,0,0,Aspect,7,no,,,,The,couple,sitting,next,to,me,at,the,restaurant,got,up,to,leave.,As,I,was,watching,the,drunk,man,he,tripped,over,my,chair.,?,?,?,?,?,?,?
TeAsP_List2_1,Croatian,230,9,Prog_LateClosure,m,28117,m,Did the couple want to leave?,yes,,,,,,708,606,505,1196,1097,640,502,302,789,345,451,462,580,1174,348,907,387,382,931,526,535,472,548,697,562,0,0,0,0,0,0,0,Aspect,7,no,,,,The,couple,sitting,next,to,me,at,the,restaurant,got,up,to,leave.,As,I,was,watching,the,drunk,man,he,tripped,over,my,chair.,?,?,?,?,?,?,?
TeAsP_List2_1,Croatian,226,33,Prog_LateClosure,x,3140,m,Did the couple want to leave?,yes,,,,,,123,185,198,144,189,164,185,182,178,186,314,159,201,139,177,163,177,193,156,171,186,135,228,180,180,0,0,0,0,0,0,0,Aspect,7,no,,,,The,couple,sitting,next,to,me,at,the,restaurant,got,up,to,leave.,As,I,was,watching,the,drunk,man,he,tripped,over,my,chair.,?,?,?,?,?,?,?
TeAsP_List2_1,Croatian,222,60,Prog_LateClosure,m,1022,m,Did the couple want to leave?,yes,,,,,,350,223,158,179,246,181,187,190,201,170,221,162,195,197,205,198,159,152,191,195,205,189,244,198,225,0,0,0,0,0,0,0,Aspect,7,no,,,,The,couple,sitting,next,to,me,at,the,restaurant,got,up,to,leave.,As,I,was,watching,the,drunk,man,he,tripped,over,my,chair.,?,?,?,?,?,?,?
TeAsP_List2_1,Croatian,214,1,Prog_LateClosure,m,3747,m,Did the couple want to leave?,yes,,,,,,607,563,727,934,432,487,426,417,438,416,385,377,800,620,478,406,433,383,566,715,556,509,795,453,430,0,0,0,0,0,0,0,Aspect,7,no,,,,The,couple,sitting,next,to,me,at,the,restaurant,got,up,to,leave.,As,I,was,watching,the,drunk,man,he,tripped,over,my,chair.,?,?,?,?,?,?,?
TeAsP_List2_1,Croatian,210,39,Prog_LateClosure,m,9417,m,Did the couple want to leave?,yes,,,,,,351,344,405,481,479,1107,266,229,235,343,254,734,211,446,358,516,198,330,552,524,445,524,899,646,540,0,0,0,0,0,0,0,Aspect,7,no,,,,The,couple,sitting,next,to,me,at,the,restaurant,got,up,to,leave.,As,I,was,watching,the,drunk,man,he,tripped,over,my,chair.,?,?,?,?,?,?,?
TeAsP_List2_1,Croatian,206,21,Prog_LateClosure,x,3535,m,Did the couple want to leave?,yes,,,,,,430,439,531,387,382,340,353,373,385,348,398,372,656,411,388,354,359,386,412,386,401,517,560,384,434,0,0,0,0,0,0,0,Aspect,7,no,,,,The,couple,sitting,next,to,me,at,the,restaurant,got,up,to,leave.,As,I,was,watching,the,drunk,man,he,tripped,over,my,chair.,?,?,?,?,?,?,?
TeAsP_List2_1,Croatian,202,31,Prog_LateClosure,m,2041,m,Did the couple want to leave?,yes,,,,,,481,258,250,256,290,234,271,222,277,549,513,247,324,299,197,239,219,222,210,198,204,313,225,294,318,0,0,0,0,0,0,0,Aspect,7,no,,,,The,couple,sitting,next,to,me,at,the,restaurant,got,up,to,leave.,As,I,was,watching,the,drunk,man,he,tripped,over,my,chair.,?,?,?,?,?,?,?
TeAsP_List1_1,Croatian,241,11,Prog_EarlyClosure,m,4619,m,Did the couple want to leave?,yes,,,,,,431,433,394,403,390,332,396,583,377,345,291,571,829,355,194,369,296,275,268,555,301,390,395,508,0,0,0,0,0,0,0,0,Aspect,7,?,,,,The,couple,sitting,next,to,me,at,the,restaurant,got,up,to,leave.,As,I,was,watching,the,drunk,man,tripped,over,my,chair.,?,?,?,?,?,?,?,?
TeAsP_List1_1,Croatian,237,81,Prog_EarlyClosure,m,2566,m,Did the couple want to leave?,yes,,,,,,332,194,278,261,218,233,233,241,233,271,265,257,265,265,247,259,244,273,234,246,285,308,306,237,0,0,0,0,0,0,0,0,Aspect,7,?,,,,The,couple,sitting,next,to,me,at,the,restaurant,got,up,to,leave.,As,I,was,watching,the,drunk,man,tripped,over,my,chair.,?,?,?,?,?,?,?,?
TeAsP_List1_1,Croatian,233,17,Prog_EarlyClosure,m,4201,m,Did the couple want to leave?,yes,,,,,,802,654,1241,615,478,403,465,453,574,646,730,407,1814,444,490,1215,592,587,634,399,472,372,341,362,0,0,0,0,0,0,0,0,Aspect,7,?,,,,The,couple,sitting,next,to,me,at,the,restaurant,got,up,to,leave.,As,I,was,watching,the,drunk,man,tripped,over,my,chair.,?,?,?,?,?,?,?,?
TeAsP_List1_1,Croatian,229,9,Prog_EarlyClosure,m,3583,m,Did the couple want to leave?,yes,,,,,,527,458,321,305,278,324,266,270,398,344,305,303,296,315,341,366,369,401,1152,350,340,302,371,291,0,0,0,0,0,0,0,0,Aspect,7,?,,,,The,couple,sitting,next,to,me,at,the,restaurant,got,up,to,leave.,As,I,was,watching,the,drunk,man,tripped,over,my,chair.,?,?,?,?,?,?,?,?
TeAsP_List1_1,Croatian,225,3,Prog_EarlyClosure,m,2663,m,Did the couple want to leave?,yes,,,,,,950,308,362,463,348,283,343,370,445,343,307,425,350,483,271,335,384,293,594,313,371,407,697,268,0,0,0,0,0,0,0,0,Aspect,7,?,,,,The,couple,sitting,next,to,me,at,the,restaurant,got,up,to,leave.,As,I,was,watching,the,drunk,man,tripped,over,my,chair.,?,?,?,?,?,?,?,?
TeAsP_List1_1,Croatian,221,84,Prog_EarlyClosure,m,3177,m,Did the couple want to leave?,yes,,,,,,258,222,171,185,184,137,156,171,184,194,231,190,192,182,178,175,183,152,190,247,236,253,292,214,0,0,0,0,0,0,0,0,Aspect,7,?,,,,The,couple,sitting,next,to,me,at,the,restaurant,got,up,to,leave.,As,I,was,watching,the,drunk,man,tripped,over,my,chair.,?,?,?,?,?,?,?,?
TeAsP_List1_1,Croatian,217,49,Prog_EarlyClosure,m,1772,m,Did the couple want to leave?,yes,,,,,,797,756,1666,390,355,350,359,622,441,396,974,754,1034,380,296,286,300,335,344,277,347,330,311,336,0,0,0,0,0,0,0,0,Aspect,7,?,,,,The,couple,sitting,next,to,me,at,the,restaurant,got,up,to,leave.,As,I,was,watching,the,drunk,man,tripped,over,my,chair.,?,?,?,?,?,?,?,?
TeAsP_List1_1,Croatian,213,9,Prog_EarlyClosure,m,2386,m,Did the couple want to leave?,yes,,,,,,623,615,479,417,553,335,696,563,545,438,2203,577,724,621,801,598,675,425,467,423,1903,563,388,1168,0,0,0,0,0,0,0,0,Aspect,7,?,,,,The,couple,sitting,next,to,me,at,the,restaurant,got,up,to,leave.,As,I,was,watching,the,drunk,man,tripped,over,my,chair.,?,?,?,?,?,?,?,?
TeAsP_List1_1,Croatian,209,21,Prog_EarlyClosure,m,5220,m,Did the couple want to leave?,yes,,,,,,409,981,449,304,263,264,242,231,300,274,260,263,232,394,226,292,312,278,286,306,377,300,316,301,0,0,0,0,0,0,0,0,Aspect,7,?,,,,The,couple,sitting,next,to,me,at,the,restaurant,got,up,to,leave.,As,I,was,watching,the,drunk,man,tripped,over,my,chair.,?,?,?,?,?,?,?,?
TeAsP_List1_1,Croatian,205,41,Prog_EarlyClosure,m,5457,m,Did the couple want to leave?,yes,,,,,,1449,599,644,578,416,378,503,344,703,908,352,649,981,498,562,477,530,478,522,512,517,545,422,433,0,0,0,0,0,0,0,0,Aspect,7,?,,,,The,couple,sitting,next,to,me,at,the,restaurant,got,up,to,leave.,As,I,was,watching,the,drunk,man,tripped,over,my,chair.,?,?,?,?,?,?,?,?
TeAsP_List1_1,Croatian,201,4,Prog_EarlyClosure,m,3070,m,Did the couple want to leave?,yes,,,,,,431,532,550,537,319,342,366,410,379,373,399,395,709,411,364,400,398,386,410,393,441,401,436,550,0,0,0,0,0,0,0,0,Aspect,7,?,,,,The,couple,sitting,next,to,me,at,the,restaurant,got,up,to,leave.,As,I,was,watching,the,drunk,man,tripped,over,my,chair.,?,?,?,?,?,?,?,?
TeAsP_List2_1,Croatian,242,3,Prog_LateClosure,m,2451,m,Did the model keep still?,yes,,,,,1772,351,227,296,400,494,511,922,303,311,294,403,418,822,359,260,241,483,241,277,330,276,355,272,355,364,372,469,0,0,0,0,0,Aspect,19,no,,,Yesterday,in,my,art,"class,",the,model,sat,in,the,same,position,for,hours.,As,I,was,drawing,the,patient,woman,she,tried,very,hard,to,keep,still.,?,?,?,?,?
TeAsP_List2_1,Croatian,234,63,Prog_LateClosure,m,1043,m,Did the model keep still?,yes,,,,,235,186,186,166,184,179,175,182,172,187,163,195,167,194,375,262,250,188,151,179,183,285,234,203,234,202,190,192,0,0,0,0,0,Aspect,19,no,,,Yesterday,in,my,art,"class,",the,model,sat,in,the,same,position,for,hours.,As,I,was,drawing,the,patient,woman,she,tried,very,hard,to,keep,still.,?,?,?,?,?
TeAsP_List2_1,Croatian,230,31,Prog_LateClosure,m,3893,m,Did the model keep still?,yes,,,,,2434,515,330,260,2536,359,677,365,268,548,194,606,916,321,5790,455,324,327,356,655,503,614,540,601,1498,334,774,576,0,0,0,0,0,Aspect,19,no,,,Yesterday,in,my,art,"class,",the,model,sat,in,the,same,position,for,hours.,As,I,was,drawing,the,patient,woman,she,tried,very,hard,to,keep,still.,?,?,?,?,?
TeAsP_List2_1,Croatian,226,49,Prog_LateClosure,m,3189,m,Did the model keep still?,yes,,,,,119,140,132,137,145,160,156,146,160,145,155,125,130,163,135,174,144,149,160,142,149,150,151,153,177,214,173,167,0,0,0,0,0,Aspect,19,no,,,Yesterday,in,my,art,"class,",the,model,sat,in,the,same,position,for,hours.,As,I,was,drawing,the,patient,woman,she,tried,very,hard,to,keep,still.,?,?,?,?,?
TeAsP_List2_1,Croatian,222,7,Prog_LateClosure,m,725,m,Did the model keep still?,yes,,,,,333,323,329,330,347,337,286,347,325,302,300,297,315,314,395,312,295,555,338,307,352,326,323,346,322,339,328,312,0,0,0,0,0,Aspect,19,no,,,Yesterday,in,my,art,"class,",the,model,sat,in,the,same,position,for,hours.,As,I,was,drawing,the,patient,woman,she,tried,very,hard,to,keep,still.,?,?,?,?,?
TeAsP_List2_1,Croatian,214,30,Prog_LateClosure,m,1463,m,Did the model keep still?,yes,,,,,322,312,347,325,323,313,325,368,368,354,393,346,349,358,340,280,302,266,314,308,275,322,322,255,332,316,313,297,0,0,0,0,0,Aspect,19,no,,,Yesterday,in,my,art,"class,",the,model,sat,in,the,same,position,for,hours.,As,I,was,drawing,the,patient,woman,she,tried,very,hard,to,keep,still.,?,?,?,?,?
TeAsP_List2_1,Croatian,210,77,Prog_LateClosure,m,1631,m,Did the model keep still?,yes,,,,,378,405,338,363,431,501,382,359,302,361,343,332,565,352,398,330,361,326,329,315,428,379,370,332,416,339,366,481,0,0,0,0,0,Aspect,19,no,,,Yesterday,in,my,art,"class,",the,model,sat,in,the,same,position,for,hours.,As,I,was,drawing,the,patient,woman,she,tried,very,hard,to,keep,still.,?,?,?,?,?
TeAsP_List2_1,Croatian,206,4,Prog_LateClosure,m,1834,m,Did the model keep still?,yes,,,,,751,861,686,624,519,637,623,692,685,695,583,832,472,763,454,431,429,506,415,453,508,945,586,1023,652,431,447,715,0,0,0,0,0,Aspect,19,no,,,Yesterday,in,my,art,"class,",the,model,sat,in,the,same,position,for,hours.,As,I,was,drawing,the,patient,woman,she,tried,very,hard,to,keep,still.,?,?,?,?,?
TeAsP_List2_1,Croatian,202,58,Prog_LateClosure,m,1238,m,Did the model keep still?,yes,,,,,265,189,275,451,187,277,237,221,277,251,256,347,403,202,575,196,316,191,291,276,461,247,263,270,492,274,306,291,0,0,0,0,0,Aspect,19,no,,,Yesterday,in,my,art,"class,",the,model,sat,in,the,same,position,for,hours.,As,I,was,drawing,the,patient,woman,she,tried,very,hard,to,keep,still.,?,?,?,?,?
TeAsP_List1_1,Croatian,241,7,Prog_EarlyClosure,m,2629,m,Did the model keep still?,yes,,,,,1320,448,512,463,681,943,480,451,466,839,685,673,1222,447,403,388,528,980,485,287,971,480,614,492,417,561,749,0,0,0,0,0,0,Aspect,19,?,,,Yesterday,in,my,art,"class,",the,model,sat,in,the,same,position,for,hours.,As,I,was,drawing,the,patient,woman,tried,very,hard,to,keep,still.,?,?,?,?,?,?
TeAsP_List1_1,Croatian,237,45,Prog_EarlyClosure,m,1119,m,Did the model keep still?,yes,,,,,454,384,361,305,316,271,647,824,277,311,284,241,269,256,341,225,260,203,286,219,262,284,235,304,267,289,256,0,0,0,0,0,0,Aspect,19,?,,,Yesterday,in,my,art,"class,",the,model,sat,in,the,same,position,for,hours.,As,I,was,drawing,the,patient,woman,tried,very,hard,to,keep,still.,?,?,?,?,?,?
TeAsP_List1_1,Croatian,233,80,Prog_EarlyClosure,m,1080,m,Did the model keep still?,yes,,,,,442,335,345,385,385,425,985,2048,289,345,379,422,348,1676,353,369,432,523,517,386,815,579,480,381,325,317,479,0,0,0,0,0,0,Aspect,19,?,,,Yesterday,in,my,art,"class,",the,model,sat,in,the,same,position,for,hours.,As,I,was,drawing,the,patient,woman,tried,very,hard,to,keep,still.,?,?,?,?,?,?
TeAsP_List1_1,Croatian,229,81,Prog_EarlyClosure,m,1107,m,Did the model keep still?,yes,,,,,353,301,534,363,393,360,338,312,394,313,423,350,288,341,332,253,305,261,324,394,387,310,397,377,368,297,317,0,0,0,0,0,0,Aspect,19,?,,,Yesterday,in,my,art,"class,",the,model,sat,in,the,same,position,for,hours.,As,I,was,drawing,the,patient,woman,tried,very,hard,to,keep,still.,?,?,?,?,?,?
TeAsP_List1_1,Croatian,225,73,Prog_EarlyClosure,m,3728,m,Did the model keep still?,yes,,,,,653,394,1329,230,270,265,249,248,284,244,484,313,238,276,324,311,323,365,306,487,270,386,266,237,311,265,333,0,0,0,0,0,0,Aspect,19,?,,,Yesterday,in,my,art,"class,",the,model,sat,in,the,same,position,for,hours.,As,I,was,drawing,the,patient,woman,tried,very,hard,to,keep,still.,?,?,?,?,?,?
TeAsP_List1_1,Croatian,221,81,Prog_EarlyClosure,m,2275,m,Did the model keep still?,yes,,,,,487,215,198,194,206,349,231,296,232,230,208,202,243,219,196,212,240,231,192,178,172,199,423,206,227,261,233,0,0,0,0,0,0,Aspect,19,?,,,Yesterday,in,my,art,"class,",the,model,sat,in,the,same,position,for,hours.,As,I,was,drawing,the,patient,woman,tried,very,hard,to,keep,still.,?,?,?,?,?,?
TeAsP_List1_1,Croatian,217,58,Prog_EarlyClosure,m,1553,m,Did the model keep still?,yes,,,,,289,323,359,384,584,400,361,327,366,346,454,330,287,363,334,323,293,313,325,301,362,381,429,374,377,395,636,0,0,0,0,0,0,Aspect,19,?,,,Yesterday,in,my,art,"class,",the,model,sat,in,the,same,position,for,hours.,As,I,was,drawing,the,patient,woman,tried,very,hard,to,keep,still.,?,?,?,?,?,?
TeAsP_List1_1,Croatian,213,22,Prog_EarlyClosure,m,3115,m,Did the model keep still?,yes,,,,,504,437,416,449,721,620,445,485,435,578,461,593,515,581,521,348,423,541,574,954,392,558,699,542,491,379,806,0,0,0,0,0,0,Aspect,19,?,,,Yesterday,in,my,art,"class,",the,model,sat,in,the,same,position,for,hours.,As,I,was,drawing,the,patient,woman,tried,very,hard,to,keep,still.,?,?,?,?,?,?
TeAsP_List1_1,Croatian,209,83,Prog_EarlyClosure,m,2220,m,Did the model keep still?,yes,,,,,403,360,466,268,382,524,274,420,410,247,338,382,245,264,318,455,274,110,395,326,355,412,257,347,359,235,237,0,0,0,0,0,0,Aspect,19,?,,,Yesterday,in,my,art,"class,",the,model,sat,in,the,same,position,for,hours.,As,I,was,drawing,the,patient,woman,tried,very,hard,to,keep,still.,?,?,?,?,?,?
TeAsP_List1_1,Croatian,205,82,Prog_EarlyClosure,m,2267,m,Did the model keep still?,yes,,,,,368,638,534,484,524,308,282,326,355,245,270,413,310,312,503,334,394,334,406,431,545,489,378,416,373,463,415,0,0,0,0,0,0,Aspect,19,?,,,Yesterday,in,my,art,"class,",the,model,sat,in,the,same,position,for,hours.,As,I,was,drawing,the,patient,woman,tried,very,hard,to,keep,still.,?,?,?,?,?,?
TeAsP_List1_1,Croatian,201,34,Prog_EarlyClosure,m,1576,m,Did the model keep still?,yes,,,,,455,463,592,472,707,467,359,380,545,213,414,311,321,304,377,296,336,302,333,288,384,349,506,390,408,317,338,0,0,0,0,0,0,Aspect,19,?,,,Yesterday,in,my,art,"class,",the,model,sat,in,the,same,position,for,hours.,As,I,was,drawing,the,patient,woman,tried,very,hard,to,keep,still.,?,?,?,?,?,?
TeAsP_List3_1,Croatian,243,11,Prog_LateClosure,m,3184,m,Did John and Sam take their guns into the woods?,yes,,,,,,,,,255,276,285,365,320,303,412,405,278,371,602,297,251,265,326,380,376,363,274,338,288,295,333,0,0,0,0,0,0,Aspect,4,no,,,,,,,John,and,Sam,took,their,guns,out,into,the,woods.,As,John,was,hunting,the,frightened,rabbit,it,escaped,through,the,dark,trees.,?,?,?,?,?,?
TeAsP_List3_1,Croatian,239,53,Prog_LateClosure,m,2937,m,Did John and Sam take their guns into the woods?,yes,,,,,,,,,404,396,317,509,234,258,282,281,271,320,370,246,297,265,520,669,409,369,597,566,363,539,634,0,0,0,0,0,0,Aspect,4,no,,,,,,,John,and,Sam,took,their,guns,out,into,the,woods.,As,John,was,hunting,the,frightened,rabbit,it,escaped,through,the,dark,trees.,?,?,?,?,?,?
TeAsP_List3_1,Croatian,235,51,Prog_LateClosure,m,3694,m,Did John and Sam take their guns into the woods?,yes,,,,,,,,,347,324,547,565,456,465,341,352,400,894,389,361,321,438,378,819,835,944,452,345,375,284,315,0,0,0,0,0,0,Aspect,4,no,,,,,,,John,and,Sam,took,their,guns,out,into,the,woods.,As,John,was,hunting,the,frightened,rabbit,it,escaped,through,the,dark,trees.,?,?,?,?,?,?
TeAsP_List3_1,Croatian,231,71,Prog_LateClosure,m,1956,m,Did John and Sam take their guns into the woods?,yes,,,,,,,,,788,403,358,354,309,294,304,327,291,285,299,289,267,297,269,298,329,299,339,291,308,320,328,0,0,0,0,0,0,Aspect,4,no,,,,,,,John,and,Sam,took,their,guns,out,into,the,woods.,As,John,was,hunting,the,frightened,rabbit,it,escaped,through,the,dark,trees.,?,?,?,?,?,?
TeAsP_List3_1,Croatian,227,81,Prog_LateClosure,m,7385,m,Did John and Sam take their guns into the woods?,yes,,,,,,,,,363,561,268,309,240,292,321,262,282,494,299,257,331,298,318,309,338,340,307,311,327,514,237,0,0,0,0,0,0,Aspect,4,no,,,,,,,John,and,Sam,took,their,guns,out,into,the,woods.,As,John,was,hunting,the,frightened,rabbit,it,escaped,through,the,dark,trees.,?,?,?,?,?,?
TeAsP_List3_1,Croatian,223,77,Prog_LateClosure,m,3346,m,Did John and Sam take their guns into the woods?,yes,,,,,,,,,340,301,282,333,300,329,277,282,251,340,657,289,311,245,341,569,326,365,335,339,327,266,355,0,0,0,0,0,0,Aspect,4,no,,,,,,,John,and,Sam,took,their,guns,out,into,the,woods.,As,John,was,hunting,the,frightened,rabbit,it,escaped,through,the,dark,trees.,?,?,?,?,?,?
TeAsP_List3_1,Croatian,219,55,Prog_LateClosure,m,2111,m,Did John and Sam take their guns into the woods?,yes,,,,,,,,,2072,375,875,516,668,346,376,271,267,281,1098,840,660,951,590,1794,899,612,563,386,339,371,363,0,0,0,0,0,0,Aspect,4,no,,,,,,,John,and,Sam,took,their,guns,out,into,the,woods.,As,John,was,hunting,the,frightened,rabbit,it,escaped,through,the,dark,trees.,?,?,?,?,?,?
TeAsP_List3_1,Croatian,215,68,Prog_LateClosure,m,1678,m,Did John and Sam take their guns into the woods?,yes,,,,,,,,,240,315,307,278,302,324,322,446,266,642,324,446,289,417,351,270,393,325,315,290,327,296,296,0,0,0,0,0,0,Aspect,4,no,,,,,,,John,and,Sam,took,their,guns,out,into,the,woods.,As,John,was,hunting,the,frightened,rabbit,it,escaped,through,the,dark,trees.,?,?,?,?,?,?
TeAsP_List3_1,Croatian,211,36,Prog_LateClosure,m,4829,m,Did John and Sam take their guns into the woods?,yes,,,,,,,,,715,730,801,664,657,651,751,705,709,716,685,698,755,909,834,1488,1036,901,1670,792,762,675,699,0,0,0,0,0,0,Aspect,4,no,,,,,,,John,and,Sam,took,their,guns,out,into,the,woods.,As,John,was,hunting,the,frightened,rabbit,it,escaped,through,the,dark,trees.,?,?,?,?,?,?
TeAsP_List3_1,Croatian,207,14,Prog_LateClosure,m,2516,m,Did John and Sam take their guns into the woods?,yes,,,,,,,,,435,205,240,296,283,306,252,280,280,407,307,243,295,396,247,334,319,286,262,289,306,220,298,0,0,0,0,0,0,Aspect,4,no,,,,,,,John,and,Sam,took,their,guns,out,into,the,woods.,As,John,was,hunting,the,frightened,rabbit,it,escaped,through,the,dark,trees.,?,?,?,?,?,?
TeAsP_List3_1,Croatian,203,84,Prog_LateClosure,m,3798,m,Did John and Sam take their guns into the woods?,yes,,,,,,,,,303,188,415,323,195,200,314,345,326,168,409,328,382,334,309,196,643,303,342,324,209,347,367,0,0,0,0,0,0,Aspect,4,no,,,,,,,John,and,Sam,took,their,guns,out,into,the,woods.,As,John,was,hunting,the,frightened,rabbit,it,escaped,through,the,dark,trees.,?,?,?,?,?,?
TeAsP_List2_1,Croatian,242,28,Prog_EarlyClosure,m,2711,m,Did John and Sam take their guns into the woods?,yes,,,,,,,,,315,279,298,270,286,334,492,343,298,338,324,267,298,306,280,279,341,294,388,363,344,344,0,0,0,0,0,0,0,Aspect,4,yes,,,,,,,John,and,Sam,took,their,guns,out,into,the,woods.,As,John,was,hunting,the,frightened,rabbit,escaped,through,the,dark,trees.,?,?,?,?,?,?,?
TeAsP_List2_1,Croatian,234,35,Prog_EarlyClosure,m,1490,m,Did John and Sam take their guns into the woods?,yes,,,,,,,,,367,167,334,228,188,197,179,181,171,193,194,205,210,214,196,207,242,218,227,235,232,176,0,0,0,0,0,0,0,Aspect,4,yes,,,,,,,John,and,Sam,took,their,guns,out,into,the,woods.,As,John,was,hunting,the,frightened,rabbit,escaped,through,the,dark,trees.,?,?,?,?,?,?,?
TeAsP_List2_1,Croatian,230,51,Prog_EarlyClosure,m,3259,m,Did John and Sam take their guns into the woods?,yes,,,,,,,,,713,701,1200,418,678,307,1871,649,433,2680,448,773,439,380,375,660,1589,1190,379,377,333,1101,0,0,0,0,0,0,0,Aspect,4,yes,,,,,,,John,and,Sam,took,their,guns,out,into,the,woods.,As,John,was,hunting,the,frightened,rabbit,escaped,through,the,dark,trees.,?,?,?,?,?,?,?
TeAsP_List2_1,Croatian,226,40,Prog_EarlyClosure,m,1456,m,Did John and Sam take their guns into the woods?,yes,,,,,,,,,127,155,137,141,135,305,150,269,180,118,134,153,135,161,141,161,191,187,166,175,142,174,0,0,0,0,0,0,0,Aspect,4,yes,,,,,,,John,and,Sam,took,their,guns,out,into,the,woods.,As,John,was,hunting,the,frightened,rabbit,escaped,through,the,dark,trees.,?,?,?,?,?,?,?
TeAsP_List2_1,Croatian,222,77,Prog_EarlyClosure,m,2912,m,Did John and Sam take their guns into the woods?,yes,,,,,,,,,173,221,191,205,175,186,420,183,520,168,191,202,188,189,174,182,170,196,185,185,234,226,0,0,0,0,0,0,0,Aspect,4,yes,,,,,,,John,and,Sam,took,their,guns,out,into,the,woods.,As,John,was,hunting,the,frightened,rabbit,escaped,through,the,dark,trees.,?,?,?,?,?,?,?
TeAsP_List2_1,Croatian,214,74,Prog_EarlyClosure,m,2203,m,Did John and Sam take their guns into the woods?,yes,,,,,,,,,390,390,859,305,302,317,305,291,273,304,289,242,325,328,312,279,294,316,316,304,273,273,0,0,0,0,0,0,0,Aspect,4,yes,,,,,,,John,and,Sam,took,their,guns,out,into,the,woods.,As,John,was,hunting,the,frightened,rabbit,escaped,through,the,dark,trees.,?,?,?,?,?,?,?
TeAsP_List2_1,Croatian,210,37,Prog_EarlyClosure,m,2541,m,Did John and Sam take their guns into the woods?,yes,,,,,,,,,318,219,351,281,234,218,287,275,235,641,384,349,375,457,335,554,546,423,519,379,346,512,0,0,0,0,0,0,0,Aspect,4,yes,,,,,,,John,and,Sam,took,their,guns,out,into,the,woods.,As,John,was,hunting,the,frightened,rabbit,escaped,through,the,dark,trees.,?,?,?,?,?,?,?
TeAsP_List2_1,Croatian,206,36,Prog_EarlyClosure,m,2583,m,Did John and Sam take their guns into the woods?,yes,,,,,,,,,340,325,328,319,357,327,346,350,420,1071,592,701,478,483,456,600,511,614,674,485,353,326,0,0,0,0,0,0,0,Aspect,4,yes,,,,,,,John,and,Sam,took,their,guns,out,into,the,woods.,As,John,was,hunting,the,frightened,rabbit,escaped,through,the,dark,trees.,?,?,?,?,?,?,?
TeAsP_List2_1,Croatian,202,9,Prog_EarlyClosure,m,2848,m,Did John and Sam take their guns into the woods?,yes,,,,,,,,,537,384,283,290,558,237,406,268,253,246,327,407,240,166,657,386,766,189,322,243,298,254,0,0,0,0,0,0,0,Aspect,4,yes,,,,,,,John,and,Sam,took,their,guns,out,into,the,woods.,As,John,was,hunting,the,frightened,rabbit,escaped,through,the,dark,trees.,?,?,?,?,?,?,?
TeAsP_List3_1,Croatian,243,79,Simple_LateClosure,m,2576,m,Was the eviction notice canceled?,yes,,,,,,,,,,,,,247,298,311,282,278,225,311,228,259,269,259,284,275,275,257,329,281,238,0,0,0,0,0,0,0,Aspect,18,no,,,,,,,,,,,The,lawyers’,office,was,rather,busy.,As,the,secretary,typed,the,eviction,notice,it,was,canceled,very,suddenly.,?,?,?,?,?,?,?
TeAsP_List3_1,Croatian,239,78,Simple_LateClosure,m,2785,m,Was the eviction notice canceled?,yes,,,,,,,,,,,,,286,221,290,246,303,347,707,371,362,419,708,317,490,364,283,283,312,315,0,0,0,0,0,0,0,Aspect,18,no,,,,,,,,,,,The,lawyers’,office,was,rather,busy.,As,the,secretary,typed,the,eviction,notice,it,was,canceled,very,suddenly.,?,?,?,?,?,?,?
TeAsP_List3_1,Croatian,235,47,Simple_LateClosure,m,6399,m,Was the eviction notice canceled?,yes,,,,,,,,,,,,,222,258,310,319,301,252,325,305,424,342,43,864,370,383,322,344,432,419,0,0,0,0,0,0,0,Aspect,18,no,,,,,,,,,,,The,lawyers’,office,was,rather,busy.,As,the,secretary,typed,the,eviction,notice,it,was,canceled,very,suddenly.,?,?,?,?,?,?,?
TeAsP_List3_1,Croatian,231,62,Simple_LateClosure,x,7069,m,Was the eviction notice canceled?,yes,,,,,,,,,,,,,345,493,234,324,319,339,485,230,440,242,316,327,363,319,324,305,273,302,0,0,0,0,0,0,0,Aspect,18,no,,,,,,,,,,,The,lawyers’,office,was,rather,busy.,As,the,secretary,typed,the,eviction,notice,it,was,canceled,very,suddenly.,?,?,?,?,?,?,?
TeAsP_List3_1,Croatian,227,77,Simple_LateClosure,m,3756,m,Was the eviction notice canceled?,yes,,,,,,,,,,,,,115,411,305,314,458,968,260,343,210,353,332,310,290,561,342,285,291,307,0,0,0,0,0,0,0,Aspect,18,no,,,,,,,,,,,The,lawyers’,office,was,rather,busy.,As,the,secretary,typed,the,eviction,notice,it,was,canceled,very,suddenly.,?,?,?,?,?,?,?
TeAsP_List3_1,Croatian,223,7,Simple_LateClosure,m,1848,m,Was the eviction notice canceled?,yes,,,,,,,,,,,,,306,541,744,390,362,385,471,421,368,272,363,453,349,430,492,420,407,491,0,0,0,0,0,0,0,Aspect,18,no,,,,,,,,,,,The,lawyers’,office,was,rather,busy.,As,the,secretary,typed,the,eviction,notice,it,was,canceled,very,suddenly.,?,?,?,?,?,?,?
TeAsP_List3_1,Croatian,219,66,Simple_LateClosure,m,2222,m,Was the eviction notice canceled?,yes,,,,,,,,,,,,,577,269,342,371,303,332,414,331,398,421,423,580,494,459,549,589,542,471,0,0,0,0,0,0,0,Aspect,18,no,,,,,,,,,,,The,lawyers’,office,was,rather,busy.,As,the,secretary,typed,the,eviction,notice,it,was,canceled,very,suddenly.,?,?,?,?,?,?,?
TeAsP_List3_1,Croatian,215,9,Simple_LateClosure,m,3472,m,Was the eviction notice canceled?,yes,,,,,,,,,,,,,382,435,389,329,344,326,346,326,402,365,359,394,387,381,370,442,439,481,0,0,0,0,0,0,0,Aspect,18,no,,,,,,,,,,,The,lawyers’,office,was,rather,busy.,As,the,secretary,typed,the,eviction,notice,it,was,canceled,very,suddenly.,?,?,?,?,?,?,?
TeAsP_List3_1,Croatian,211,49,Simple_LateClosure,m,6159,m,Was the eviction notice canceled?,yes,,,,,,,,,,,,,870,1444,384,896,675,1308,653,715,3356,766,678,959,663,373,486,707,480,653,0,0,0,0,0,0,0,Aspect,18,no,,,,,,,,,,,The,lawyers’,office,was,rather,busy.,As,the,secretary,typed,the,eviction,notice,it,was,canceled,very,suddenly.,?,?,?,?,?,?,?
TeAsP_List3_1,Croatian,207,46,Simple_LateClosure,m,6720,m,Was the eviction notice canceled?,yes,,,,,,,,,,,,,346,273,211,233,264,263,283,293,251,292,315,275,322,354,348,437,247,282,0,0,0,0,0,0,0,Aspect,18,no,,,,,,,,,,,The,lawyers’,office,was,rather,busy.,As,the,secretary,typed,the,eviction,notice,it,was,canceled,very,suddenly.,?,?,?,?,?,?,?
TeAsP_List3_1,Croatian,203,45,Simple_LateClosure,x,8155,m,Was the eviction notice canceled?,yes,,,,,,,,,,,,,295,306,335,274,298,268,303,576,384,388,278,245,1235,397,366,274,379,296,0,0,0,0,0,0,0,Aspect,18,no,,,,,,,,,,,The,lawyers’,office,was,rather,busy.,As,the,secretary,typed,the,eviction,notice,it,was,canceled,very,suddenly.,?,?,?,?,?,?,?
TeAsP_List2_1,Croatian,242,63,Simple_LateClosure,m,1916,x,Was the bar full?,yes,,,,,,,,,,,324,262,291,288,328,346,373,374,354,263,275,306,300,380,268,294,295,248,378,338,292,0,0,0,0,0,0,Aspect,1,no,,,,,,,,,It,was,late,and,the,bar,was,full.,As,the,men,drank,the,strong,beer,it,was,spilled,on,the,floor.,?,?,?,?,?,?
TeAsP_List2_1,Croatian,234,37,Simple_LateClosure,m,1113,x,Was the bar full?,yes,,,,,,,,,,,355,178,176,233,249,197,193,219,215,197,214,182,206,221,271,230,221,226,216,224,214,0,0,0,0,0,0,Aspect,1,no,,,,,,,,,It,was,late,and,the,bar,was,full.,As,the,men,drank,the,strong,beer,it,was,spilled,on,the,floor.,?,?,?,?,?,?
TeAsP_List2_1,Croatian,230,42,Simple_LateClosure,m,4079,x,Was the bar full?,yes,,,,,,,,,,,647,656,621,510,475,448,397,350,1434,324,297,643,919,474,364,750,373,381,501,390,360,0,0,0,0,0,0,Aspect,1,no,,,,,,,,,It,was,late,and,the,bar,was,full.,As,the,men,drank,the,strong,beer,it,was,spilled,on,the,floor.,?,?,?,?,?,?
TeAsP_List2_1,Croatian,226,69,Simple_LateClosure,m,2972,x,Was the bar full?,yes,,,,,,,,,,,163,201,126,161,133,153,158,172,169,160,167,172,149,160,169,158,171,167,161,183,182,0,0,0,0,0,0,Aspect,1,no,,,,,,,,,It,was,late,and,the,bar,was,full.,As,the,men,drank,the,strong,beer,it,was,spilled,on,the,floor.,?,?,?,?,?,?
TeAsP_List2_1,Croatian,222,22,Simple_LateClosure,m,840,x,Was the bar full?,yes,,,,,,,,,,,193,174,238,261,224,224,224,208,211,225,198,198,213,179,184,243,220,249,314,250,261,0,0,0,0,0,0,Aspect,1,no,,,,,,,,,It,was,late,and,the,bar,was,full.,As,the,men,drank,the,strong,beer,it,was,spilled,on,the,floor.,?,?,?,?,?,?
TeAsP_List2_1,Croatian,214,53,Simple_LateClosure,m,1683,x,Was the bar full?,yes,,,,,,,,,,,382,306,281,294,278,290,374,256,268,314,311,338,289,289,282,297,285,273,253,352,290,0,0,0,0,0,0,Aspect,1,no,,,,,,,,,It,was,late,and,the,bar,was,full.,As,the,men,drank,the,strong,beer,it,was,spilled,on,the,floor.,?,?,?,?,?,?
TeAsP_List2_1,Croatian,210,51,Simple_LateClosure,m,3050,x,Was the bar full?,yes,,,,,,,,,,,345,360,339,330,531,718,348,361,413,401,471,400,408,370,402,354,355,478,395,353,604,0,0,0,0,0,0,Aspect,1,no,,,,,,,,,It,was,late,and,the,bar,was,full.,As,the,men,drank,the,strong,beer,it,was,spilled,on,the,floor.,?,?,?,?,?,?
TeAsP_List2_1,Croatian,206,68,Simple_LateClosure,m,1677,x,Was the bar full?,yes,,,,,,,,,,,292,324,323,357,306,297,305,358,265,293,279,271,293,288,277,302,290,328,327,305,301,0,0,0,0,0,0,Aspect,1,no,,,,,,,,,It,was,late,and,the,bar,was,full.,As,the,men,drank,the,strong,beer,it,was,spilled,on,the,floor.,?,?,?,?,?,?
TeAsP_List2_1,Croatian,202,83,Simple_LateClosure,m,1599,x,Was the bar full?,yes,,,,,,,,,,,319,431,217,284,289,278,240,287,289,169,495,95,316,281,208,492,226,292,236,310,346,0,0,0,0,0,0,Aspect,1,no,,,,,,,,,It,was,late,and,the,bar,was,full.,As,the,men,drank,the,strong,beer,it,was,spilled,on,the,floor.,?,?,?,?,?,?
TeAsP_List1_1,Croatian,241,13,Simple_EarlyClosure,m,1264,x,Was the bar full?,yes,,,,,,,,,,,890,669,445,315,292,236,509,578,320,231,433,268,289,378,256,345,736,1899,1057,1573,0,0,0,0,0,0,0,Aspect,1,yes,,,,,,,,,It,was,late,and,the,bar,was,full.,As,the,men,drank,the,strong,beer,was,spilled,on,the,floor.,?,?,?,?,?,?,?
TeAsP_List1_1,Croatian,237,68,Simple_EarlyClosure,m,1750,x,Was the bar full?,yes,,,,,,,,,,,619,277,319,265,251,232,262,244,218,472,212,215,257,242,213,293,277,246,301,220,0,0,0,0,0,0,0,Aspect,1,yes,,,,,,,,,It,was,late,and,the,bar,was,full.,As,the,men,drank,the,strong,beer,was,spilled,on,the,floor.,?,?,?,?,?,?,?
TeAsP_List1_1,Croatian,233,84,Simple_EarlyClosure,m,8681,x,Was the bar full?,yes,,,,,,,,,,,333,379,385,396,388,1101,532,1170,308,364,277,341,374,393,334,641,463,377,385,718,0,0,0,0,0,0,0,Aspect,1,yes,,,,,,,,,It,was,late,and,the,bar,was,full.,As,the,men,drank,the,strong,beer,was,spilled,on,the,floor.,?,?,?,?,?,?,?
TeAsP_List1_1,Croatian,229,16,Simple_EarlyClosure,m,1830,x,Was the bar full?,yes,,,,,,,,,,,332,339,317,324,358,330,303,377,277,376,317,345,308,423,381,346,371,349,324,328,0,0,0,0,0,0,0,Aspect,1,yes,,,,,,,,,It,was,late,and,the,bar,was,full.,As,the,men,drank,the,strong,beer,was,spilled,on,the,floor.,?,?,?,?,?,?,?
TeAsP_List1_1,Croatian,225,64,Simple_EarlyClosure,m,1508,x,Was the bar full?,yes,,,,,,,,,,,336,649,349,510,253,344,247,664,378,264,515,342,270,239,438,567,366,246,305,456,0,0,0,0,0,0,0,Aspect,1,yes,,,,,,,,,It,was,late,and,the,bar,was,full.,As,the,men,drank,the,strong,beer,was,spilled,on,the,floor.,?,?,?,?,?,?,?
TeAsP_List1_1,Croatian,221,18,Simple_EarlyClosure,m,2242,x,Was the bar full?,yes,,,,,,,,,,,454,291,246,299,1137,303,331,203,396,286,221,231,216,237,256,273,419,252,311,555,0,0,0,0,0,0,0,Aspect,1,yes,,,,,,,,,It,was,late,and,the,bar,was,full.,As,the,men,drank,the,strong,beer,was,spilled,on,the,floor.,?,?,?,?,?,?,?
TeAsP_List1_1,Croatian,217,50,Simple_EarlyClosure,m,2696,x,Was the bar full?,yes,,,,,,,,,,,326,11605,600,404,358,368,337,717,494,386,455,385,394,469,479,382,418,407,412,383,0,0,0,0,0,0,0,Aspect,1,yes,,,,,,,,,It,was,late,and,the,bar,was,full.,As,the,men,drank,the,strong,beer,was,spilled,on,the,floor.,?,?,?,?,?,?,?
TeAsP_List1_1,Croatian,213,43,Simple_EarlyClosure,m,1952,x,Was the bar full?,yes,,,,,,,,,,,587,588,394,448,341,422,806,871,338,519,506,429,416,471,596,578,674,423,571,525,0,0,0,0,0,0,0,Aspect,1,yes,,,,,,,,,It,was,late,and,the,bar,was,full.,As,the,men,drank,the,strong,beer,was,spilled,on,the,floor.,?,?,?,?,?,?,?
TeAsP_List1_1,Croatian,209,11,Simple_EarlyClosure,m,6906,x,Was the bar full?,yes,,,,,,,,,,,361,304,350,302,336,274,212,330,401,330,284,261,358,395,448,267,468,372,281,638,0,0,0,0,0,0,0,Aspect,1,yes,,,,,,,,,It,was,late,and,the,bar,was,full.,As,the,men,drank,the,strong,beer,was,spilled,on,the,floor.,?,?,?,?,?,?,?
TeAsP_List1_1,Croatian,205,84,Simple_EarlyClosure,m,2041,x,Was the bar full?,yes,,,,,,,,,,,362,252,232,287,260,263,341,243,246,259,244,253,363,359,300,336,766,583,434,555,0,0,0,0,0,0,0,Aspect,1,yes,,,,,,,,,It,was,late,and,the,bar,was,full.,As,the,men,drank,the,strong,beer,was,spilled,on,the,floor.,?,?,?,?,?,?,?
TeAsP_List1_1,Croatian,201,20,Simple_EarlyClosure,m,1778,x,Was the bar full?,yes,,,,,,,,,,,653,421,534,748,540,634,534,522,510,622,400,393,337,288,343,294,822,485,416,337,0,0,0,0,0,0,0,Aspect,1,yes,,,,,,,,,It,was,late,and,the,bar,was,full.,As,the,men,drank,the,strong,beer,was,spilled,on,the,floor.,?,?,?,?,?,?,?
TeAsP_List3_1,Croatian,243,82,Simple_LateClosure,m,2057,m,Did Alice and Jim decorate their house every year?,yes,,,,,,,,,,,,292,313,273,316,267,274,274,262,429,231,277,242,247,256,274,287,280,278,267,304,0,0,0,0,0,0,Aspect,2,no,,,,,,,,,,Alice,and,Jim,decorated,their,house,every,year.,When,Alice,painted,the,kitchen,walls,they,were,covered,with,many,drops.,?,?,?,?,?,?
TeAsP_List3_1,Croatian,239,7,Simple_LateClosure,x,5401,m,Did Alice and Jim decorate their house every year?,yes,,,,,,,,,,,,308,282,272,333,592,392,501,562,7949,358,363,339,298,362,362,355,375,327,323,725,0,0,0,0,0,0,Aspect,2,no,,,,,,,,,,Alice,and,Jim,decorated,their,house,every,year.,When,Alice,painted,the,kitchen,walls,they,were,covered,with,many,drops.,?,?,?,?,?,?
TeAsP_List3_1,Croatian,235,53,Simple_LateClosure,m,5820,m,Did Alice and Jim decorate their house every year?,yes,,,,,,,,,,,,286,316,368,604,284,353,738,989,314,387,269,289,278,299,487,280,307,350,294,259,0,0,0,0,0,0,Aspect,2,no,,,,,,,,,,Alice,and,Jim,decorated,their,house,every,year.,When,Alice,painted,the,kitchen,walls,they,were,covered,with,many,drops.,?,?,?,?,?,?
TeAsP_List3_1,Croatian,231,70,Simple_LateClosure,m,4797,m,Did Alice and Jim decorate their house every year?,yes,,,,,,,,,,,,510,755,636,421,370,341,342,351,342,345,713,415,336,383,342,362,355,301,311,299,0,0,0,0,0,0,Aspect,2,no,,,,,,,,,,Alice,and,Jim,decorated,their,house,every,year.,When,Alice,painted,the,kitchen,walls,they,were,covered,with,many,drops.,?,?,?,?,?,?
TeAsP_List3_1,Croatian,227,7,Simple_LateClosure,m,2753,m,Did Alice and Jim decorate their house every year?,yes,,,,,,,,,,,,553,696,826,459,467,570,419,460,503,494,409,721,423,406,829,509,683,392,406,727,0,0,0,0,0,0,Aspect,2,no,,,,,,,,,,Alice,and,Jim,decorated,their,house,every,year.,When,Alice,painted,the,kitchen,walls,they,were,covered,with,many,drops.,?,?,?,?,?,?
TeAsP_List3_1,Croatian,223,57,Simple_LateClosure,m,3927,m,Did Alice and Jim decorate their house every year?,yes,,,,,,,,,,,,357,355,321,384,494,423,564,383,407,422,402,368,475,369,410,400,418,374,701,569,0,0,0,0,0,0,Aspect,2,no,,,,,,,,,,Alice,and,Jim,decorated,their,house,every,year.,When,Alice,painted,the,kitchen,walls,they,were,covered,with,many,drops.,?,?,?,?,?,?
TeAsP_List3_1,Croatian,219,52,Simple_LateClosure,m,2550,m,Did Alice and Jim decorate their house every year?,yes,,,,,,,,,,,,1394,640,335,345,457,496,464,292,409,210,708,390,376,373,408,464,340,548,344,395,0,0,0,0,0,0,Aspect,2,no,,,,,,,,,,Alice,and,Jim,decorated,their,house,every,year.,When,Alice,painted,the,kitchen,walls,they,were,covered,with,many,drops.,?,?,?,?,?,?
TeAsP_List3_1,Croatian,215,30,Simple_LateClosure,m,2477,m,Did Alice and Jim decorate their house every year?,yes,,,,,,,,,,,,355,389,244,370,303,329,293,457,324,593,360,312,747,384,387,312,307,577,370,395,0,0,0,0,0,0,Aspect,2,no,,,,,,,,,,Alice,and,Jim,decorated,their,house,every,year.,When,Alice,painted,the,kitchen,walls,they,were,covered,with,many,drops.,?,?,?,?,?,?
TeAsP_List3_1,Croatian,211,73,Simple_LateClosure,m,9123,m,Did Alice and Jim decorate their house every year?,yes,,,,,,,,,,,,911,422,404,2581,552,526,519,423,443,811,666,429,567,574,512,484,469,423,479,563,0,0,0,0,0,0,Aspect,2,no,,,,,,,,,,Alice,and,Jim,decorated,their,house,every,year.,When,Alice,painted,the,kitchen,walls,they,were,covered,with,many,drops.,?,?,?,?,?,?
TeAsP_List3_1,Croatian,207,71,Simple_LateClosure,m,4675,m,Did Alice and Jim decorate their house every year?,yes,,,,,,,,,,,,294,305,303,323,399,278,333,338,328,293,327,345,283,332,292,301,324,304,321,262,0,0,0,0,0,0,Aspect,2,no,,,,,,,,,,Alice,and,Jim,decorated,their,house,every,year.,When,Alice,painted,the,kitchen,walls,they,were,covered,with,many,drops.,?,?,?,?,?,?
TeAsP_List3_1,Croatian,203,27,Simple_LateClosure,x,9163,m,Did Alice and Jim decorate their house every year?,yes,,,,,,,,,,,,337,234,191,327,243,257,248,306,328,277,285,614,544,327,382,377,378,340,278,301,0,0,0,0,0,0,Aspect,2,no,,,,,,,,,,Alice,and,Jim,decorated,their,house,every,year.,When,Alice,painted,the,kitchen,walls,they,were,covered,with,many,drops.,?,?,?,?,?,?
TeAsP_List3_1,Croatian,243,35,Prog_LateClosure,m,1851,m,Did the horse jump a fence?,yes,,,,,,,,,,,514,299,262,248,302,311,311,278,269,288,318,301,271,266,270,299,275,311,252,342,249,267,0,0,0,0,0,Aspect,12,no,,,,,,,,,Jenny,and,Sam,went,out,for,a,ride.,While,Jenny,was,riding,the,young,horse,it,decided,to,jump,a,high,fence.,?,?,?,?,?
TeAsP_List3_1,Croatian,239,70,Prog_LateClosure,m,2765,m,Did the horse jump a fence?,yes,,,,,,,,,,,384,194,207,287,255,319,241,260,741,822,353,476,250,668,365,358,325,290,275,305,274,288,0,0,0,0,0,Aspect,12,no,,,,,,,,,Jenny,and,Sam,went,out,for,a,ride.,While,Jenny,was,riding,the,young,horse,it,decided,to,jump,a,high,fence.,?,?,?,?,?
TeAsP_List3_1,Croatian,235,14,Prog_LateClosure,m,2473,m,Did the horse jump a fence?,yes,,,,,,,,,,,405,391,415,780,1427,295,351,280,358,485,390,1394,1380,407,336,362,584,308,478,380,363,334,0,0,0,0,0,Aspect,12,no,,,,,,,,,Jenny,and,Sam,went,out,for,a,ride.,While,Jenny,was,riding,the,young,horse,it,decided,to,jump,a,high,fence.,?,?,?,?,?
TeAsP_List3_1,Croatian,231,20,Prog_LateClosure,m,3541,m,Did the horse jump a fence?,yes,,,,,,,,,,,593,232,305,302,295,382,268,288,263,242,276,277,236,262,280,286,301,292,284,316,318,318,0,0,0,0,0,Aspect,12,no,,,,,,,,,Jenny,and,Sam,went,out,for,a,ride.,While,Jenny,was,riding,the,young,horse,it,decided,to,jump,a,high,fence.,?,?,?,?,?
TeAsP_List3_1,Croatian,227,78,Prog_LateClosure,m,2071,m,Did the horse jump a fence?,yes,,,,,,,,,,,256,198,268,246,219,274,256,290,83,236,458,357,210,249,389,220,258,368,254,259,291,372,0,0,0,0,0,Aspect,12,no,,,,,,,,,Jenny,and,Sam,went,out,for,a,ride.,While,Jenny,was,riding,the,young,horse,it,decided,to,jump,a,high,fence.,?,?,?,?,?
TeAsP_List3_1,Croatian,223,75,Prog_LateClosure,m,1712,m,Did the horse jump a fence?,yes,,,,,,,,,,,297,305,342,436,360,508,306,465,319,337,287,377,532,363,497,364,499,325,394,383,331,295,0,0,0,0,0,Aspect,12,no,,,,,,,,,Jenny,and,Sam,went,out,for,a,ride.,While,Jenny,was,riding,the,young,horse,it,decided,to,jump,a,high,fence.,?,?,?,?,?
TeAsP_List3_1,Croatian,219,13,Prog_LateClosure,m,3667,m,Did the horse jump a fence?,yes,,,,,,,,,,,459,619,526,552,510,460,503,451,454,528,482,722,465,479,445,522,517,513,443,467,479,493,0,0,0,0,0,Aspect,12,no,,,,,,,,,Jenny,and,Sam,went,out,for,a,ride.,While,Jenny,was,riding,the,young,horse,it,decided,to,jump,a,high,fence.,?,?,?,?,?
TeAsP_List3_1,Croatian,215,15,Prog_LateClosure,m,2008,m,Did the horse jump a fence?,yes,,,,,,,,,,,258,302,253,281,230,341,295,270,358,418,288,268,308,314,312,345,305,315,280,300,332,307,0,0,0,0,0,Aspect,12,no,,,,,,,,,Jenny,and,Sam,went,out,for,a,ride.,While,Jenny,was,riding,the,young,horse,it,decided,to,jump,a,high,fence.,?,?,?,?,?
TeAsP_List3_1,Croatian,211,29,Prog_LateClosure,m,2822,m,Did the horse jump a fence?,yes,,,,,,,,,,,542,637,622,823,537,511,396,432,449,451,376,606,463,415,526,481,1246,380,452,409,381,448,0,0,0,0,0,Aspect,12,no,,,,,,,,,Jenny,and,Sam,went,out,for,a,ride.,While,Jenny,was,riding,the,young,horse,it,decided,to,jump,a,high,fence.,?,?,?,?,?
TeAsP_List3_1,Croatian,207,84,Prog_LateClosure,m,1535,m,Did the horse jump a fence?,yes,,,,,,,,,,,271,278,256,251,250,210,236,216,333,234,200,427,274,287,371,381,240,345,242,264,305,195,0,0,0,0,0,Aspect,12,no,,,,,,,,,Jenny,and,Sam,went,out,for,a,ride.,While,Jenny,was,riding,the,young,horse,it,decided,to,jump,a,high,fence.,?,?,?,?,?
TeAsP_List3_1,Croatian,203,74,Prog_LateClosure,m,2535,m,Did the horse jump a fence?,yes,,,,,,,,,,,326,385,346,288,287,275,268,266,598,281,306,260,317,258,259,287,297,346,295,267,276,515,0,0,0,0,0,Aspect,12,no,,,,,,,,,Jenny,and,Sam,went,out,for,a,ride.,While,Jenny,was,riding,the,young,horse,it,decided,to,jump,a,high,fence.,?,?,?,?,?
TeAsP_List2_1,Croatian,242,58,Simple_EarlyClosure,x,8012,x,Did the ice-cream drop down the boy’s pants?,yes,,,,,,,,,,259,225,240,255,470,239,241,304,266,275,266,200,292,250,298,300,327,305,273,265,322,0,0,0,0,0,0,0,Aspect,14,?,,,,,,,,In,the,"park,",two,children,were,eating,some,ice-cream.,As,the,boy,ate,the,chocolate,ice-cream,dropped,down,his,clean,shirt.,?,?,?,?,?,?,?
TeAsP_List2_1,Croatian,234,3,Simple_EarlyClosure,x,2229,x,Did the ice-cream drop down the boy’s pants?,yes,,,,,,,,,,475,136,175,141,172,372,612,310,266,271,272,155,107,260,320,319,316,458,357,316,335,0,0,0,0,0,0,0,Aspect,14,?,,,,,,,,In,the,"park,",two,children,were,eating,some,ice-cream.,As,the,boy,ate,the,chocolate,ice-cream,dropped,down,his,clean,shirt.,?,?,?,?,?,?,?
TeAsP_List2_1,Croatian,230,84,Simple_EarlyClosure,x,5034,x,Did the ice-cream drop down the boy’s pants?,yes,,,,,,,,,,393,355,199,930,348,308,285,351,318,3875,292,254,251,326,993,332,800,251,321,300,390,0,0,0,0,0,0,0,Aspect,14,?,,,,,,,,In,the,"park,",two,children,were,eating,some,ice-cream.,As,the,boy,ate,the,chocolate,ice-cream,dropped,down,his,clean,shirt.,?,?,?,?,?,?,?
TeAsP_List2_1,Croatian,226,22,Simple_EarlyClosure,x,1897,x,Did the ice-cream drop down the boy’s pants?,yes,,,,,,,,,,144,225,172,159,182,193,179,203,186,191,166,186,154,228,173,243,144,239,189,202,165,0,0,0,0,0,0,0,Aspect,14,?,,,,,,,,In,the,"park,",two,children,were,eating,some,ice-cream.,As,the,boy,ate,the,chocolate,ice-cream,dropped,down,his,clean,shirt.,?,?,?,?,?,?,?
TeAsP_List2_1,Croatian,222,66,Simple_EarlyClosure,m,2621,x,Did the ice-cream drop down the boy’s pants?,yes,,,,,,,,,,370,217,176,170,189,191,181,178,189,255,233,197,192,204,391,223,213,209,260,237,245,0,0,0,0,0,0,0,Aspect,14,?,,,,,,,,In,the,"park,",two,children,were,eating,some,ice-cream.,As,the,boy,ate,the,chocolate,ice-cream,dropped,down,his,clean,shirt.,?,?,?,?,?,?,?
TeAsP_List2_1,Croatian,214,22,Simple_EarlyClosure,x,2281,x,Did the ice-cream drop down the boy’s pants?,yes,,,,,,,,,,442,385,381,356,375,806,387,417,476,445,330,334,358,357,354,405,300,316,312,294,326,0,0,0,0,0,0,0,Aspect,14,?,,,,,,,,In,the,"park,",two,children,were,eating,some,ice-cream.,As,the,boy,ate,the,chocolate,ice-cream,dropped,down,his,clean,shirt.,?,?,?,?,?,?,?
TeAsP_List2_1,Croatian,210,50,Simple_EarlyClosure,x,2921,x,Did the ice-cream drop down the boy’s pants?,yes,,,,,,,,,,513,576,766,405,407,305,421,510,364,393,279,304,266,450,533,505,497,405,388,422,587,0,0,0,0,0,0,0,Aspect,14,?,,,,,,,,In,the,"park,",two,children,were,eating,some,ice-cream.,As,the,boy,ate,the,chocolate,ice-cream,dropped,down,his,clean,shirt.,?,?,?,?,?,?,?
TeAsP_List2_1,Croatian,206,11,Simple_EarlyClosure,x,2748,x,Did the ice-cream drop down the boy’s pants?,yes,,,,,,,,,,375,404,534,491,460,449,484,477,717,405,362,359,394,443,491,490,549,525,533,436,728,0,0,0,0,0,0,0,Aspect,14,?,,,,,,,,In,the,"park,",two,children,were,eating,some,ice-cream.,As,the,boy,ate,the,chocolate,ice-cream,dropped,down,his,clean,shirt.,?,?,?,?,?,?,?
TeAsP_List2_1,Croatian,202,11,Simple_EarlyClosure,m,2664,x,Did the ice-cream drop down the boy’s pants?,yes,,,,,,,,,,658,198,210,524,228,303,403,315,368,426,200,328,301,320,371,427,366,377,397,626,371,0,0,0,0,0,0,0,Aspect,14,?,,,,,,,,In,the,"park,",two,children,were,eating,some,ice-cream.,As,the,boy,ate,the,chocolate,ice-cream,dropped,down,his,clean,shirt.,?,?,?,?,?,?,?
TeAsP_List4_1,Croatian,240,19,Simple_EarlyClosure,m,2901,m,Did John and Sam take their guns into the woods?,yes,,,,,,,,,,513,357,316,569,819,570,473,2281,349,436,352,326,403,356,372,460,392,425,580,416,490,0,0,0,0,0,0,0,Aspect,4,yes,,,,,,,,John,and,Sam,took,their,guns,out,into,the,woods.,As,John,hunted,the,frightened,rabbit,escaped,through,the,dark,trees.,?,?,?,?,?,?,?
TeAsP_List4_1,Croatian,236,27,Simple_EarlyClosure,m,3251,m,Did John and Sam take their guns into the woods?,yes,,,,,,,,,,523,189,574,307,418,274,333,877,268,369,241,324,425,357,461,542,284,459,386,253,349,0,0,0,0,0,0,0,Aspect,4,yes,,,,,,,,John,and,Sam,took,their,guns,out,into,the,woods.,As,John,hunted,the,frightened,rabbit,escaped,through,the,dark,trees.,?,?,?,?,?,?,?
TeAsP_List4_1,Croatian,232,7,Simple_EarlyClosure,m,5286,m,Did John and Sam take their guns into the woods?,yes,,,,,,,,,,384,354,365,324,319,296,308,326,364,707,408,548,244,409,606,523,581,608,414,530,484,0,0,0,0,0,0,0,Aspect,4,yes,,,,,,,,John,and,Sam,took,their,guns,out,into,the,woods.,As,John,hunted,the,frightened,rabbit,escaped,through,the,dark,trees.,?,?,?,?,?,?,?
TeAsP_List4_1,Croatian,228,77,Simple_EarlyClosure,m,2682,m,Did John and Sam take their guns into the woods?,yes,,,,,,,,,,305,373,256,342,249,332,285,292,271,269,350,233,253,287,376,327,304,304,322,288,454,0,0,0,0,0,0,0,Aspect,4,yes,,,,,,,,John,and,Sam,took,their,guns,out,into,the,woods.,As,John,hunted,the,frightened,rabbit,escaped,through,the,dark,trees.,?,?,?,?,?,?,?
TeAsP_List4_1,Croatian,224,22,Simple_EarlyClosure,m,1713,m,Did John and Sam take their guns into the woods?,yes,,,,,,,,,,532,558,535,563,514,515,500,542,459,578,486,505,535,499,491,564,475,575,438,465,462,0,0,0,0,0,0,0,Aspect,4,yes,,,,,,,,John,and,Sam,took,their,guns,out,into,the,woods.,As,John,hunted,the,frightened,rabbit,escaped,through,the,dark,trees.,?,?,?,?,?,?,?
TeAsP_List4_1,Croatian,220,29,Simple_EarlyClosure,m,1309,m,Did John and Sam take their guns into the woods?,yes,,,,,,,,,,313,331,279,336,302,290,283,235,343,327,297,331,334,397,347,366,347,279,460,435,359,0,0,0,0,0,0,0,Aspect,4,yes,,,,,,,,John,and,Sam,took,their,guns,out,into,the,woods.,As,John,hunted,the,frightened,rabbit,escaped,through,the,dark,trees.,?,?,?,?,?,?,?
TeAsP_List4_1,Croatian,216,7,Simple_EarlyClosure,m,2226,m,Did John and Sam take their guns into the woods?,yes,,,,,,,,,,460,190,340,182,356,177,337,312,305,193,433,270,278,292,442,336,330,354,288,274,552,0,0,0,0,0,0,0,Aspect,4,yes,,,,,,,,John,and,Sam,took,their,guns,out,into,the,woods.,As,John,hunted,the,frightened,rabbit,escaped,through,the,dark,trees.,?,?,?,?,?,?,?
TeAsP_List4_1,Croatian,212,75,Simple_EarlyClosure,m,3615,m,Did John and Sam take their guns into the woods?,yes,,,,,,,,,,231,204,198,233,261,209,207,186,230,178,204,229,223,212,211,195,219,246,275,234,211,0,0,0,0,0,0,0,Aspect,4,yes,,,,,,,,John,and,Sam,took,their,guns,out,into,the,woods.,As,John,hunted,the,frightened,rabbit,escaped,through,the,dark,trees.,?,?,?,?,?,?,?
TeAsP_List4_1,Croatian,204,84,Simple_EarlyClosure,m,2838,m,Did John and Sam take their guns into the woods?,yes,,,,,,,,,,150,142,142,141,148,133,128,139,143,146,155,143,144,170,124,144,135,160,166,145,191,0,0,0,0,0,0,0,Aspect,4,yes,,,,,,,,John,and,Sam,took,their,guns,out,into,the,woods.,As,John,hunted,the,frightened,rabbit,escaped,through,the,dark,trees.,?,?,?,?,?,?,?
TeAsP_List3_1,Croatian,243,25,Simple_LateClosure,x,10468,x,Was the flat tidy?,yes,,,,,,,,,,,,287,266,294,285,266,370,286,390,274,239,361,353,345,285,347,550,493,414,373,0,0,0,0,0,0,0,Aspect,6,no,,,,,,,,,,The,flat,was,very,old,and,dirty.,Even,when,Joe,cleaned,the,small,kitchen,it,smelled,like,old,rubbish.,?,?,?,?,?,?,?
TeAsP_List3_1,Croatian,239,10,Simple_LateClosure,m,2068,x,Was the flat tidy?,yes,,,,,,,,,,,,417,347,357,336,446,349,625,1225,298,414,487,405,1579,578,654,374,851,330,458,0,0,0,0,0,0,0,Aspect,6,no,,,,,,,,,,The,flat,was,very,old,and,dirty.,Even,when,Joe,cleaned,the,small,kitchen,it,smelled,like,old,rubbish.,?,?,?,?,?,?,?
TeAsP_List3_1,Croatian,235,80,Simple_LateClosure,x,1676,x,Was the flat tidy?,yes,,,,,,,,,,,,256,416,360,333,366,356,530,303,253,294,294,252,254,351,313,253,434,296,503,0,0,0,0,0,0,0,Aspect,6,no,,,,,,,,,,The,flat,was,very,old,and,dirty.,Even,when,Joe,cleaned,the,small,kitchen,it,smelled,like,old,rubbish.,?,?,?,?,?,?,?
TeAsP_List3_1,Croatian,231,4,Simple_LateClosure,m,1899,x,Was the flat tidy?,yes,,,,,,,,,,,,310,365,339,385,282,326,307,329,361,305,349,320,261,285,347,282,288,291,312,0,0,0,0,0,0,0,Aspect,6,no,,,,,,,,,,The,flat,was,very,old,and,dirty.,Even,when,Joe,cleaned,the,small,kitchen,it,smelled,like,old,rubbish.,?,?,?,?,?,?,?
TeAsP_List3_1,Croatian,227,21,Simple_LateClosure,x,2093,x,Was the flat tidy?,yes,,,,,,,,,,,,304,562,389,323,326,612,372,366,373,559,429,308,315,555,242,358,282,280,340,0,0,0,0,0,0,0,Aspect,6,no,,,,,,,,,,The,flat,was,very,old,and,dirty.,Even,when,Joe,cleaned,the,small,kitchen,it,smelled,like,old,rubbish.,?,?,?,?,?,?,?
TeAsP_List3_1,Croatian,223,82,Simple_LateClosure,x,3310,x,Was the flat tidy?,yes,,,,,,,,,,,,294,363,312,328,297,315,454,350,408,319,341,361,343,371,427,417,378,364,386,0,0,0,0,0,0,0,Aspect,6,no,,,,,,,,,,The,flat,was,very,old,and,dirty.,Even,when,Joe,cleaned,the,small,kitchen,it,smelled,like,old,rubbish.,?,?,?,?,?,?,?
TeAsP_List3_1,Croatian,219,49,Simple_LateClosure,x,1891,x,Was the flat tidy?,yes,,,,,,,,,,,,545,377,367,362,449,475,386,528,496,560,450,1087,452,404,762,398,447,390,463,0,0,0,0,0,0,0,Aspect,6,no,,,,,,,,,,The,flat,was,very,old,and,dirty.,Even,when,Joe,cleaned,the,small,kitchen,it,smelled,like,old,rubbish.,?,?,?,?,?,?,?
TeAsP_List3_1,Croatian,215,66,Simple_LateClosure,x,1352,x,Was the flat tidy?,yes,,,,,,,,,,,,311,339,360,324,340,315,332,354,289,279,264,463,306,864,429,397,417,309,797,0,0,0,0,0,0,0,Aspect,6,no,,,,,,,,,,The,flat,was,very,old,and,dirty.,Even,when,Joe,cleaned,the,small,kitchen,it,smelled,like,old,rubbish.,?,?,?,?,?,?,?
TeAsP_List3_1,Croatian,211,52,Simple_LateClosure,m,20168,x,Was the flat tidy?,yes,,,,,,,,,,,,425,604,425,367,407,399,527,480,496,475,428,1230,407,656,602,641,446,481,909,0,0,0,0,0,0,0,Aspect,6,no,,,,,,,,,,The,flat,was,very,old,and,dirty.,Even,when,Joe,cleaned,the,small,kitchen,it,smelled,like,old,rubbish.,?,?,?,?,?,?,?
TeAsP_List3_1,Croatian,207,42,Simple_LateClosure,x,1118,x,Was the flat tidy?,yes,,,,,,,,,,,,1351,341,390,362,215,314,207,278,221,213,286,273,229,212,362,189,248,267,296,0,0,0,0,0,0,0,Aspect,6,no,,,,,,,,,,The,flat,was,very,old,and,dirty.,Even,when,Joe,cleaned,the,small,kitchen,it,smelled,like,old,rubbish.,?,?,?,?,?,?,?
TeAsP_List3_1,Croatian,203,1,Simple_LateClosure,x,2171,x,Was the flat tidy?,yes,,,,,,,,,,,,351,326,401,310,305,338,401,447,365,426,384,367,337,374,403,375,360,455,423,0,0,0,0,0,0,0,Aspect,6,no,,,,,,,,,,The,flat,was,very,old,and,dirty.,Even,when,Joe,cleaned,the,small,kitchen,it,smelled,like,old,rubbish.,?,?,?,?,?,?,?
TeAsP_List2_1,Croatian,242,26,Simple_EarlyClosure,x,2475,x,Was the flat tidy?,yes,,,,,,,,,,,,449,421,342,463,328,319,258,316,274,239,337,306,321,283,338,332,318,381,0,0,0,0,0,0,0,0,Aspect,6,yes,,,,,,,,,,The,flat,was,very,old,and,dirty.,Even,when,Joe,cleaned,the,small,kitchen,smelled,like,old,rubbish.,?,?,?,?,?,?,?,?
TeAsP_List2_1,Croatian,234,23,Simple_EarlyClosure,x,1402,x,Was the flat tidy?,yes,,,,,,,,,,,,230,242,224,247,298,227,250,246,198,187,228,206,221,228,227,277,290,275,0,0,0,0,0,0,0,0,Aspect,6,yes,,,,,,,,,,The,flat,was,very,old,and,dirty.,Even,when,Joe,cleaned,the,small,kitchen,smelled,like,old,rubbish.,?,?,?,?,?,?,?,?
TeAsP_List2_1,Croatian,230,80,Simple_EarlyClosure,x,2933,x,Was the flat tidy?,yes,,,,,,,,,,,,1947,535,858,1985,1315,372,1247,312,305,204,162,157,336,296,371,281,290,526,0,0,0,0,0,0,0,0,Aspect,6,yes,,,,,,,,,,The,flat,was,very,old,and,dirty.,Even,when,Joe,cleaned,the,small,kitchen,smelled,like,old,rubbish.,?,?,?,?,?,?,?,?
TeAsP_List2_1,Croatian,226,77,Simple_EarlyClosure,x,1142,x,Was the flat tidy?,yes,,,,,,,,,,,,122,186,104,125,165,156,123,146,152,164,164,178,182,165,197,181,190,188,0,0,0,0,0,0,0,0,Aspect,6,yes,,,,,,,,,,The,flat,was,very,old,and,dirty.,Even,when,Joe,cleaned,the,small,kitchen,smelled,like,old,rubbish.,?,?,?,?,?,?,?,?
TeAsP_List2_1,Croatian,222,3,Simple_EarlyClosure,x,1250,x,Was the flat tidy?,yes,,,,,,,,,,,,483,344,361,397,377,389,326,369,315,310,348,331,345,353,766,548,577,595,0,0,0,0,0,0,0,0,Aspect,6,yes,,,,,,,,,,The,flat,was,very,old,and,dirty.,Even,when,Joe,cleaned,the,small,kitchen,smelled,like,old,rubbish.,?,?,?,?,?,?,?,?
TeAsP_List2_1,Croatian,214,56,Simple_EarlyClosure,x,1882,x,Was the flat tidy?,yes,,,,,,,,,,,,344,374,480,311,448,370,364,359,304,297,302,288,304,275,295,314,333,325,0,0,0,0,0,0,0,0,Aspect,6,yes,,,,,,,,,,The,flat,was,very,old,and,dirty.,Even,when,Joe,cleaned,the,small,kitchen,smelled,like,old,rubbish.,?,?,?,?,?,?,?,?
TeAsP_List2_1,Croatian,210,11,Simple_EarlyClosure,x,1827,x,Was the flat tidy?,yes,,,,,,,,,,,,1024,911,823,665,592,475,1745,666,409,478,549,482,472,618,649,613,692,737,0,0,0,0,0,0,0,0,Aspect,6,yes,,,,,,,,,,The,flat,was,very,old,and,dirty.,Even,when,Joe,cleaned,the,small,kitchen,smelled,like,old,rubbish.,?,?,?,?,?,?,?,?
TeAsP_List2_1,Croatian,206,71,Simple_EarlyClosure,x,1630,x,Was the flat tidy?,yes,,,,,,,,,,,,398,486,359,318,298,279,257,275,261,296,329,282,294,270,280,270,316,377,0,0,0,0,0,0,0,0,Aspect,6,yes,,,,,,,,,,The,flat,was,very,old,and,dirty.,Even,when,Joe,cleaned,the,small,kitchen,smelled,like,old,rubbish.,?,?,?,?,?,?,?,?
TeAsP_List2_1,Croatian,202,51,Simple_EarlyClosure,x,1646,x,Was the flat tidy?,yes,,,,,,,,,,,,165,510,170,214,213,269,232,560,394,369,187,177,177,190,207,297,262,307,0,0,0,0,0,0,0,0,Aspect,6,yes,,,,,,,,,,The,flat,was,very,old,and,dirty.,Even,when,Joe,cleaned,the,small,kitchen,smelled,like,old,rubbish.,?,?,?,?,?,?,?,?
TeAsP_List1_1,Croatian,241,53,Simple_LateClosure,m,2713,m,Did the furniture look expensive?,yes,,,,,,,,,,,450,344,583,794,400,803,779,704,1381,499,690,662,371,364,419,346,429,380,353,481,0,0,0,0,0,0,0,Aspect,16,no,,,,,,,,,Sarah,and,Jane,owned,a,shop,selling,old,furniture.,When,Sarah,polished,the,cheap,furniture,it,looked,new,and,expensive.,?,?,?,?,?,?,?
TeAsP_List1_1,Croatian,237,79,Simple_LateClosure,m,1768,m,Did the furniture look expensive?,yes,,,,,,,,,,,362,297,244,216,229,248,241,272,217,255,208,221,216,233,219,219,248,223,263,284,0,0,0,0,0,0,0,Aspect,16,no,,,,,,,,,Sarah,and,Jane,owned,a,shop,selling,old,furniture.,When,Sarah,polished,the,cheap,furniture,it,looked,new,and,expensive.,?,?,?,?,?,?,?
TeAsP_List1_1,Croatian,233,66,Simple_LateClosure,m,1570,m,Did the furniture look expensive?,yes,,,,,,,,,,,363,404,432,586,488,439,471,410,1056,364,418,398,340,458,529,393,359,354,361,1330,0,0,0,0,0,0,0,Aspect,16,no,,,,,,,,,Sarah,and,Jane,owned,a,shop,selling,old,furniture.,When,Sarah,polished,the,cheap,furniture,it,looked,new,and,expensive.,?,?,?,?,?,?,?
TeAsP_List1_1,Croatian,229,74,Simple_LateClosure,m,1344,m,Did the furniture look expensive?,yes,,,,,,,,,,,322,325,344,296,287,319,345,316,293,346,346,396,360,357,445,338,286,346,350,492,0,0,0,0,0,0,0,Aspect,16,no,,,,,,,,,Sarah,and,Jane,owned,a,shop,selling,old,furniture.,When,Sarah,polished,the,cheap,furniture,it,looked,new,and,expensive.,?,?,?,?,?,?,?
TeAsP_List1_1,Croatian,225,28,Simple_LateClosure,m,1225,m,Did the furniture look expensive?,yes,,,,,,,,,,,272,228,241,279,232,286,546,326,553,266,241,204,349,279,467,225,361,216,582,268,0,0,0,0,0,0,0,Aspect,16,no,,,,,,,,,Sarah,and,Jane,owned,a,shop,selling,old,furniture.,When,Sarah,polished,the,cheap,furniture,it,looked,new,and,expensive.,?,?,?,?,?,?,?
TeAsP_List1_1,Croatian,221,20,Simple_LateClosure,m,5448,m,Did the furniture look expensive?,yes,,,,,,,,,,,430,311,152,231,238,229,271,277,504,1318,489,272,242,239,539,348,295,322,337,269,0,0,0,0,0,0,0,Aspect,16,no,,,,,,,,,Sarah,and,Jane,owned,a,shop,selling,old,furniture.,When,Sarah,polished,the,cheap,furniture,it,looked,new,and,expensive.,?,?,?,?,?,?,?
TeAsP_List1_1,Croatian,217,19,Simple_LateClosure,m,1465,m,Did the furniture look expensive?,yes,,,,,,,,,,,904,513,458,573,521,345,377,496,2299,608,574,518,638,360,347,422,478,384,449,390,0,0,0,0,0,0,0,Aspect,16,no,,,,,,,,,Sarah,and,Jane,owned,a,shop,selling,old,furniture.,When,Sarah,polished,the,cheap,furniture,it,looked,new,and,expensive.,?,?,?,?,?,?,?
TeAsP_List1_1,Croatian,213,27,Simple_LateClosure,m,2743,m,Did the furniture look expensive?,yes,,,,,,,,,,,638,617,716,623,426,319,532,533,1491,491,438,416,383,693,337,368,447,370,476,655,0,0,0,0,0,0,0,Aspect,16,no,,,,,,,,,Sarah,and,Jane,owned,a,shop,selling,old,furniture.,When,Sarah,polished,the,cheap,furniture,it,looked,new,and,expensive.,?,?,?,?,?,?,?
TeAsP_List1_1,Croatian,209,70,Simple_LateClosure,m,1265,m,Did the furniture look expensive?,yes,,,,,,,,,,,842,356,161,430,403,193,432,285,150,313,166,428,177,445,187,246,218,267,204,273,0,0,0,0,0,0,0,Aspect,16,no,,,,,,,,,Sarah,and,Jane,owned,a,shop,selling,old,furniture.,When,Sarah,polished,the,cheap,furniture,it,looked,new,and,expensive.,?,?,?,?,?,?,?
TeAsP_List1_1,Croatian,205,66,Simple_LateClosure,m,3218,m,Did the furniture look expensive?,yes,,,,,,,,,,,290,382,334,344,397,425,407,488,510,523,538,482,332,434,432,346,325,349,368,480,0,0,0,0,0,0,0,Aspect,16,no,,,,,,,,,Sarah,and,Jane,owned,a,shop,selling,old,furniture.,When,Sarah,polished,the,cheap,furniture,it,looked,new,and,expensive.,?,?,?,?,?,?,?
TeAsP_List1_1,Croatian,201,53,Simple_LateClosure,m,1161,m,Did the furniture look expensive?,yes,,,,,,,,,,,564,410,334,355,338,371,3842,303,705,221,277,330,291,296,390,365,267,293,223,280,0,0,0,0,0,0,0,Aspect,16,no,,,,,,,,,Sarah,and,Jane,owned,a,shop,selling,old,furniture.,When,Sarah,polished,the,cheap,furniture,it,looked,new,and,expensive.,?,?,?,?,?,?,?
TeAsP_List4_1,Croatian,240,23,Simple_EarlyClosure,m,3144,m,Did the furniture look expensive?,yes,,,,,,,,,,,458,351,295,496,332,374,378,347,499,1055,335,384,617,567,864,550,437,386,289,0,0,0,0,0,0,0,0,Aspect,16,?,,,,,,,,,Sarah,and,Jane,owned,a,shop,selling,old,furniture.,When,Sarah,polished,the,cheap,furniture,looked,new,and,expensive.,?,?,?,?,?,?,?,?
TeAsP_List4_1,Croatian,236,7,Simple_EarlyClosure,m,2166,m,Did the furniture look expensive?,yes,,,,,,,,,,,490,313,377,310,629,394,359,430,524,339,698,1670,439,593,952,436,425,421,527,0,0,0,0,0,0,0,0,Aspect,16,?,,,,,,,,,Sarah,and,Jane,owned,a,shop,selling,old,furniture.,When,Sarah,polished,the,cheap,furniture,looked,new,and,expensive.,?,?,?,?,?,?,?,?
TeAsP_List4_1,Croatian,232,56,Simple_EarlyClosure,m,3532,m,Did the furniture look expensive?,yes,,,,,,,,,,,286,1038,416,862,312,254,284,380,405,418,298,260,360,280,408,419,485,408,233,0,0,0,0,0,0,0,0,Aspect,16,?,,,,,,,,,Sarah,and,Jane,owned,a,shop,selling,old,furniture.,When,Sarah,polished,the,cheap,furniture,looked,new,and,expensive.,?,?,?,?,?,?,?,?
TeAsP_List4_1,Croatian,228,82,Simple_EarlyClosure,m,3073,m,Did the furniture look expensive?,yes,,,,,,,,,,,284,241,188,205,255,257,231,224,229,376,255,270,264,201,277,240,261,286,448,0,0,0,0,0,0,0,0,Aspect,16,?,,,,,,,,,Sarah,and,Jane,owned,a,shop,selling,old,furniture.,When,Sarah,polished,the,cheap,furniture,looked,new,and,expensive.,?,?,?,?,?,?,?,?
TeAsP_List4_1,Croatian,224,45,Simple_EarlyClosure,m,1782,m,Did the furniture look expensive?,yes,,,,,,,,,,,318,400,416,470,436,531,563,925,561,657,626,4823,409,467,531,529,466,519,584,0,0,0,0,0,0,0,0,Aspect,16,?,,,,,,,,,Sarah,and,Jane,owned,a,shop,selling,old,furniture.,When,Sarah,polished,the,cheap,furniture,looked,new,and,expensive.,?,?,?,?,?,?,?,?
TeAsP_List4_1,Croatian,220,65,Simple_EarlyClosure,m,1560,m,Did the furniture look expensive?,yes,,,,,,,,,,,235,203,191,803,234,193,202,136,213,384,310,239,201,175,185,168,187,181,161,0,0,0,0,0,0,0,0,Aspect,16,?,,,,,,,,,Sarah,and,Jane,owned,a,shop,selling,old,furniture.,When,Sarah,polished,the,cheap,furniture,looked,new,and,expensive.,?,?,?,?,?,?,?,?
TeAsP_List4_1,Croatian,216,52,Simple_EarlyClosure,m,1399,m,Did the furniture look expensive?,yes,,,,,,,,,,,261,212,161,207,462,236,180,142,194,301,289,224,176,204,426,224,206,233,246,0,0,0,0,0,0,0,0,Aspect,16,?,,,,,,,,,Sarah,and,Jane,owned,a,shop,selling,old,furniture.,When,Sarah,polished,the,cheap,furniture,looked,new,and,expensive.,?,?,?,?,?,?,?,?
TeAsP_List4_1,Croatian,212,40,Simple_EarlyClosure,m,2069,m,Did the furniture look expensive?,yes,,,,,,,,,,,279,304,264,289,307,306,329,336,361,351,302,316,327,302,323,334,326,343,483,0,0,0,0,0,0,0,0,Aspect,16,?,,,,,,,,,Sarah,and,Jane,owned,a,shop,selling,old,furniture.,When,Sarah,polished,the,cheap,furniture,looked,new,and,expensive.,?,?,?,?,?,?,?,?
TeAsP_List4_1,Croatian,204,48,Simple_EarlyClosure,m,1823,m,Did the furniture look expensive?,yes,,,,,,,,,,,320,329,212,289,301,254,251,238,269,255,266,242,274,226,256,253,246,254,300,0,0,0,0,0,0,0,0,Aspect,16,?,,,,,,,,,Sarah,and,Jane,owned,a,shop,selling,old,furniture.,When,Sarah,polished,the,cheap,furniture,looked,new,and,expensive.,?,?,?,?,?,?,?,?
TeAsP_List4_1,Croatian,240,21,Simple_LateClosure,m,2076,m,Did the model keep still?,yes,,,,,,452,684,1080,516,378,402,529,401,333,322,290,347,344,374,349,360,358,584,512,419,557,362,525,732,436,332,366,0,0,0,0,0,Aspect,19,no,,,,Yesterday,in,my,art,"class,",the,model,sat,in,the,same,position,for,hours.,As,I,drew,the,patient,woman,she,tried,very,hard,to,keep,still.,?,?,?,?,?
TeAsP_List4_1,Croatian,236,5,Simple_LateClosure,x,2045,m,Did the model keep still?,yes,,,,,,515,332,259,436,526,307,521,370,340,340,386,664,356,354,401,362,377,449,1078,559,370,621,400,354,328,269,274,0,0,0,0,0,Aspect,19,no,,,,Yesterday,in,my,art,"class,",the,model,sat,in,the,same,position,for,hours.,As,I,drew,the,patient,woman,she,tried,very,hard,to,keep,still.,?,?,?,?,?
TeAsP_List4_1,Croatian,232,31,Simple_LateClosure,m,5507,m,Did the model keep still?,yes,,,,,,611,594,270,304,632,872,353,430,353,340,320,327,467,327,437,309,319,285,291,307,306,330,311,297,312,312,296,0,0,0,0,0,Aspect,19,no,,,,Yesterday,in,my,art,"class,",the,model,sat,in,the,same,position,for,hours.,As,I,drew,the,patient,woman,she,tried,very,hard,to,keep,still.,?,?,?,?,?
TeAsP_List4_1,Croatian,228,48,Simple_LateClosure,x,6167,m,Did the model keep still?,yes,,,,,,486,328,286,276,323,314,337,325,299,272,338,351,299,290,358,340,353,307,374,271,329,344,243,330,301,277,316,0,0,0,0,0,Aspect,19,no,,,,Yesterday,in,my,art,"class,",the,model,sat,in,the,same,position,for,hours.,As,I,drew,the,patient,woman,she,tried,very,hard,to,keep,still.,?,?,?,?,?
TeAsP_List4_1,Croatian,224,32,Simple_LateClosure,m,3737,m,Did the model keep still?,yes,,,,,,466,52,823,615,532,523,548,556,498,362,640,1201,718,1588,431,874,778,1177,791,653,684,1750,883,1318,882,733,1030,0,0,0,0,0,Aspect,19,no,,,,Yesterday,in,my,art,"class,",the,model,sat,in,the,same,position,for,hours.,As,I,drew,the,patient,woman,she,tried,very,hard,to,keep,still.,?,?,?,?,?
TeAsP_List4_1,Croatian,220,6,Simple_LateClosure,m,1098,m,Did the model keep still?,yes,,,,,,392,381,352,345,358,363,360,324,345,318,351,366,345,347,366,340,347,364,388,418,407,398,370,374,349,387,494,0,0,0,0,0,Aspect,19,no,,,,Yesterday,in,my,art,"class,",the,model,sat,in,the,same,position,for,hours.,As,I,drew,the,patient,woman,she,tried,very,hard,to,keep,still.,?,?,?,?,?
TeAsP_List4_1,Croatian,216,19,Simple_LateClosure,m,2012,m,Did the model keep still?,yes,,,,,,302,144,234,426,172,311,209,343,191,212,183,266,206,241,269,323,532,222,150,182,246,257,203,230,196,208,158,0,0,0,0,0,Aspect,19,no,,,,Yesterday,in,my,art,"class,",the,model,sat,in,the,same,position,for,hours.,As,I,drew,the,patient,woman,she,tried,very,hard,to,keep,still.,?,?,?,?,?
TeAsP_List4_1,Croatian,212,80,Simple_LateClosure,m,1544,m,Did the model keep still?,yes,,,,,,334,279,288,303,304,316,316,290,392,301,292,328,303,309,368,251,290,274,244,603,305,256,319,349,324,317,311,0,0,0,0,0,Aspect,19,no,,,,Yesterday,in,my,art,"class,",the,model,sat,in,the,same,position,for,hours.,As,I,drew,the,patient,woman,she,tried,very,hard,to,keep,still.,?,?,?,?,?
TeAsP_List4_1,Croatian,204,21,Simple_LateClosure,m,3639,m,Did the model keep still?,yes,,,,,,256,232,186,143,91,1246,387,405,369,583,360,444,342,834,34503,331,337,345,344,357,306,334,304,299,279,294,277,0,0,0,0,0,Aspect,19,no,,,,Yesterday,in,my,art,"class,",the,model,sat,in,the,same,position,for,hours.,As,I,drew,the,patient,woman,she,tried,very,hard,to,keep,still.,?,?,?,?,?
TeAsP_List3_1,Croatian,243,67,Simple_EarlyClosure,m,1437,m,Did the model keep still?,yes,,,,,,435,349,376,315,1117,397,347,858,387,283,342,277,331,320,356,270,301,272,308,339,268,342,323,293,274,304,0,0,0,0,0,0,Aspect,19,?,,,,Yesterday,in,my,art,"class,",the,model,sat,in,the,same,position,for,hours.,As,I,drew,the,patient,woman,tried,very,hard,to,keep,still.,?,?,?,?,?,?
TeAsP_List3_1,Croatian,239,48,Simple_EarlyClosure,m,3199,m,Did the model keep still?,yes,,,,,,252,307,291,219,226,279,200,250,245,227,379,311,259,318,431,242,275,234,197,702,371,786,322,313,282,361,0,0,0,0,0,0,Aspect,19,?,,,,Yesterday,in,my,art,"class,",the,model,sat,in,the,same,position,for,hours.,As,I,drew,the,patient,woman,tried,very,hard,to,keep,still.,?,?,?,?,?,?
TeAsP_List3_1,Croatian,235,11,Simple_EarlyClosure,m,5984,m,Did the model keep still?,yes,,,,,,621,396,396,385,997,701,375,457,421,402,402,440,410,802,1003,399,364,510,449,1153,1797,463,407,371,430,782,0,0,0,0,0,0,Aspect,19,?,,,,Yesterday,in,my,art,"class,",the,model,sat,in,the,same,position,for,hours.,As,I,drew,the,patient,woman,tried,very,hard,to,keep,still.,?,?,?,?,?,?
TeAsP_List3_1,Croatian,231,47,Simple_EarlyClosure,m,2634,m,Did the model keep still?,yes,,,,,,341,306,297,308,332,274,270,290,1009,243,429,236,282,334,268,269,241,479,181,273,299,310,298,315,289,670,0,0,0,0,0,0,Aspect,19,?,,,,Yesterday,in,my,art,"class,",the,model,sat,in,the,same,position,for,hours.,As,I,drew,the,patient,woman,tried,very,hard,to,keep,still.,?,?,?,?,?,?
TeAsP_List3_1,Croatian,227,40,Simple_EarlyClosure,x,3028,m,Did the model keep still?,yes,,,,,,321,294,329,260,297,292,349,514,235,586,349,292,305,244,243,432,250,279,250,244,508,313,266,290,270,323,0,0,0,0,0,0,Aspect,19,?,,,,Yesterday,in,my,art,"class,",the,model,sat,in,the,same,position,for,hours.,As,I,drew,the,patient,woman,tried,very,hard,to,keep,still.,?,?,?,?,?,?
TeAsP_List3_1,Croatian,223,24,Simple_EarlyClosure,m,1406,m,Did the model keep still?,yes,,,,,,434,397,351,334,355,258,405,237,325,243,780,307,308,273,389,286,546,252,285,529,311,360,553,365,346,404,0,0,0,0,0,0,Aspect,19,?,,,,Yesterday,in,my,art,"class,",the,model,sat,in,the,same,position,for,hours.,As,I,drew,the,patient,woman,tried,very,hard,to,keep,still.,?,?,?,?,?,?
TeAsP_List3_1,Croatian,219,29,Simple_EarlyClosure,m,3914,m,Did the model keep still?,yes,,,,,,626,661,376,275,418,370,406,341,313,375,498,571,349,386,326,362,334,448,456,396,368,373,351,468,353,353,0,0,0,0,0,0,Aspect,19,?,,,,Yesterday,in,my,art,"class,",the,model,sat,in,the,same,position,for,hours.,As,I,drew,the,patient,woman,tried,very,hard,to,keep,still.,?,?,?,?,?,?
TeAsP_List3_1,Croatian,215,73,Simple_EarlyClosure,m,1356,m,Did the model keep still?,yes,,,,,,421,256,328,342,304,397,272,330,315,329,290,348,273,303,301,325,295,527,581,602,344,422,686,463,365,385,0,0,0,0,0,0,Aspect,19,?,,,,Yesterday,in,my,art,"class,",the,model,sat,in,the,same,position,for,hours.,As,I,drew,the,patient,woman,tried,very,hard,to,keep,still.,?,?,?,?,?,?
TeAsP_List3_1,Croatian,211,45,Simple_EarlyClosure,m,1952,m,Did the model keep still?,yes,,,,,,572,558,467,431,986,498,479,414,395,364,455,535,459,400,523,397,455,414,1251,1038,541,481,451,478,466,586,0,0,0,0,0,0,Aspect,19,?,,,,Yesterday,in,my,art,"class,",the,model,sat,in,the,same,position,for,hours.,As,I,drew,the,patient,woman,tried,very,hard,to,keep,still.,?,?,?,?,?,?
TeAsP_List3_1,Croatian,207,28,Simple_EarlyClosure,m,1693,m,Did the model keep still?,yes,,,,,,270,245,228,264,246,313,220,352,280,243,300,241,284,252,328,317,273,361,291,239,368,277,266,264,255,260,0,0,0,0,0,0,Aspect,19,?,,,,Yesterday,in,my,art,"class,",the,model,sat,in,the,same,position,for,hours.,As,I,drew,the,patient,woman,tried,very,hard,to,keep,still.,?,?,?,?,?,?
TeAsP_List3_1,Croatian,203,54,Simple_EarlyClosure,m,3966,m,Did the model keep still?,yes,,,,,,262,252,289,248,228,728,164,458,295,433,255,257,425,251,803,181,294,265,232,544,333,379,313,282,167,299,0,0,0,0,0,0,Aspect,19,?,,,,Yesterday,in,my,art,"class,",the,model,sat,in,the,same,position,for,hours.,As,I,drew,the,patient,woman,tried,very,hard,to,keep,still.,?,?,?,?,?,?
TeAsP_List3_1,Croatian,243,8,Simple_LateClosure,x,2439,x,Did the ice-cream drop down the boy’s pants?,yes,,,,,,,,,,337,321,304,283,333,335,304,316,429,513,250,249,300,472,761,286,513,367,389,401,532,402,0,0,0,0,0,0,Aspect,14,no,,,,,,,,In,the,"park,",two,children,were,eating,some,ice-cream.,As,the,boy,ate,the,chocolate,ice-cream,it,dropped,down,his,clean,shirt.,?,?,?,?,?,?
TeAsP_List2_1,Croatian,242,10,Simple_LateClosure,m,3157,m,Were there different kinds of vehicles at the company?,yes,,,,,,,,,,299,348,451,444,348,427,363,389,311,482,476,281,373,464,298,315,407,316,336,306,364,565,0,0,0,0,0,0,Aspect,9,no,,,,,,,,There,were,many,different,kinds,of,vehicles,at,the,company.,When,George,drove,the,big,lorry,it,made,loud,and,strange,noises.,?,?,?,?,?,?
TeAsP_List1_1,Croatian,241,70,Simple_LateClosure,m,2515,m,Did John and Sam take their guns into the woods?,yes,,,,,,,,,,456,463,1684,330,542,270,368,257,203,123,155,222,212,192,394,446,276,339,202,199,223,238,0,0,0,0,0,0,Aspect,4,no,,,,,,,,John,and,Sam,took,their,guns,out,into,the,woods.,As,John,hunted,the,frightened,rabbit,it,escaped,through,the,dark,trees.,?,?,?,?,?,?
TeAsP_List1_1,Croatian,241,79,Simple_LateClosure,x,2237,x,Did Mrs. Brown park well?,yes,,,,,,,,,,366,899,482,338,292,253,257,137,412,311,301,230,266,320,217,229,300,238,288,459,271,560,0,0,0,0,0,0,Aspect,20,no,,,,,,,,The,driving,instructor,almost,gave,up,on,Mrs.,Brown.,When,the,woman,parked,the,new,car,it,was,always,at,an,angle.,?,?,?,?,?,?
TeAsP_List4_1,Croatian,240,57,Simple_LateClosure,m,1135,m,Was the town safe?,yes,,,,,,,,,,236,282,460,364,567,298,284,290,266,440,295,237,218,464,286,242,250,636,272,258,287,0,0,0,0,0,0,0,Aspect,11,no,,,,,,,,On,Saturday,"nights,",the,police,department,was,very,busy.,When,the,sheriff,patrolled,the,whole,town,it,was,safe,and,secure.,?,?,?,?,?,?,?
TeAsP_List3_1,Croatian,239,2,Simple_LateClosure,x,2736,x,Did the ice-cream drop down the boy’s pants?,yes,,,,,,,,,,1164,334,298,347,427,301,440,447,374,569,308,309,297,326,426,415,302,439,379,562,349,357,0,0,0,0,0,0,Aspect,14,no,,,,,,,,In,the,"park,",two,children,were,eating,some,ice-cream.,As,the,boy,ate,the,chocolate,ice-cream,it,dropped,down,his,clean,shirt.,?,?,?,?,?,?
TeAsP_List1_1,Croatian,237,1,Simple_LateClosure,x,1905,x,Did Mrs. Brown park well?,yes,,,,,,,,,,839,448,361,422,370,411,399,590,351,463,511,474,534,636,346,374,367,379,372,372,375,702,0,0,0,0,0,0,Aspect,20,no,,,,,,,,The,driving,instructor,almost,gave,up,on,Mrs.,Brown.,When,the,woman,parked,the,new,car,it,was,always,at,an,angle.,?,?,?,?,?,?
TeAsP_List1_1,Croatian,237,80,Simple_LateClosure,m,2547,m,Did John and Sam take their guns into the woods?,yes,,,,,,,,,,251,516,560,264,220,256,238,218,216,273,258,278,254,328,249,298,256,244,235,258,263,239,0,0,0,0,0,0,Aspect,4,no,,,,,,,,John,and,Sam,took,their,guns,out,into,the,woods.,As,John,hunted,the,frightened,rabbit,it,escaped,through,the,dark,trees.,?,?,?,?,?,?
TeAsP_List4_1,Croatian,236,56,Simple_LateClosure,m,3903,m,Was the town safe?,yes,,,,,,,,,,279,432,272,307,694,291,405,342,364,291,247,358,879,469,291,332,324,359,285,452,363,0,0,0,0,0,0,0,Aspect,11,no,,,,,,,,On,Saturday,"nights,",the,police,department,was,very,busy.,When,the,sheriff,patrolled,the,whole,town,it,was,safe,and,secure.,?,?,?,?,?,?,?
TeAsP_List3_1,Croatian,235,15,Simple_LateClosure,x,2865,x,Did the ice-cream drop down the boy’s pants?,yes,,,,,,,,,,471,312,331,380,1443,509,1610,304,459,393,308,318,356,322,869,1069,387,455,297,423,482,603,0,0,0,0,0,0,Aspect,14,no,,,,,,,,In,the,"park,",two,children,were,eating,some,ice-cream.,As,the,boy,ate,the,chocolate,ice-cream,it,dropped,down,his,clean,shirt.,?,?,?,?,?,?
TeAsP_List2_1,Croatian,234,10,Simple_LateClosure,m,1499,m,Were there different kinds of vehicles at the company?,yes,,,,,,,,,,190,272,265,193,204,226,285,244,223,293,264,207,213,192,223,199,267,351,248,296,308,294,0,0,0,0,0,0,Aspect,9,no,,,,,,,,There,were,many,different,kinds,of,vehicles,at,the,company.,When,George,drove,the,big,lorry,it,made,loud,and,strange,noises.,?,?,?,?,?,?
TeAsP_List1_1,Croatian,233,13,Simple_LateClosure,m,2346,m,Did John and Sam take their guns into the woods?,yes,,,,,,,,,,862,609,495,984,402,528,433,422,375,1369,540,388,380,379,903,699,464,754,351,331,358,391,0,0,0,0,0,0,Aspect,4,no,,,,,,,,John,and,Sam,took,their,guns,out,into,the,woods.,As,John,hunted,the,frightened,rabbit,it,escaped,through,the,dark,trees.,?,?,?,?,?,?
TeAsP_List1_1,Croatian,233,39,Simple_LateClosure,x,2731,x,Did Mrs. Brown park well?,yes,,,,,,,,,,382,437,1017,807,506,829,311,595,542,661,340,341,387,345,392,349,397,381,462,392,386,846,0,0,0,0,0,0,Aspect,20,no,,,,,,,,The,driving,instructor,almost,gave,up,on,Mrs.,Brown.,When,the,woman,parked,the,new,car,it,was,always,at,an,angle.,?,?,?,?,?,?
TeAsP_List4_1,Croatian,232,52,Simple_LateClosure,m,2432,m,Was the town safe?,yes,,,,,,,,,,949,494,418,269,267,448,197,349,395,582,266,454,407,525,486,415,370,313,324,324,351,0,0,0,0,0,0,0,Aspect,11,no,,,,,,,,On,Saturday,"nights,",the,police,department,was,very,busy.,When,the,sheriff,patrolled,the,whole,town,it,was,safe,and,secure.,?,?,?,?,?,?,?
TeAsP_List3_1,Croatian,231,77,Simple_LateClosure,x,3035,x,Did the ice-cream drop down the boy’s pants?,yes,,,,,,,,,,312,291,401,406,692,373,353,351,324,386,342,361,346,348,318,332,334,321,351,329,283,387,0,0,0,0,0,0,Aspect,14,no,,,,,,,,In,the,"park,",two,children,were,eating,some,ice-cream.,As,the,boy,ate,the,chocolate,ice-cream,it,dropped,down,his,clean,shirt.,?,?,?,?,?,?
TeAsP_List2_1,Croatian,230,70,Simple_LateClosure,m,2585,m,Were there different kinds of vehicles at the company?,yes,,,,,,,,,,342,279,261,597,274,426,345,2460,292,2332,340,1037,230,340,259,303,356,338,318,347,517,750,0,0,0,0,0,0,Aspect,9,no,,,,,,,,There,were,many,different,kinds,of,vehicles,at,the,company.,When,George,drove,the,big,lorry,it,made,loud,and,strange,noises.,?,?,?,?,?,?
TeAsP_List1_1,Croatian,229,36,Simple_LateClosure,m,3079,m,Did John and Sam take their guns into the woods?,yes,,,,,,,,,,301,378,403,397,359,344,349,357,330,324,348,334,457,382,507,386,337,366,364,325,303,316,0,0,0,0,0,0,Aspect,4,no,,,,,,,,John,and,Sam,took,their,guns,out,into,the,woods.,As,John,hunted,the,frightened,rabbit,it,escaped,through,the,dark,trees.,?,?,?,?,?,?
TeAsP_List1_1,Croatian,229,37,Simple_LateClosure,x,1274,x,Did Mrs. Brown park well?,yes,,,,,,,,,,273,396,332,610,416,428,337,283,274,289,340,348,354,309,302,365,366,358,308,300,321,276,0,0,0,0,0,0,Aspect,20,no,,,,,,,,The,driving,instructor,almost,gave,up,on,Mrs.,Brown.,When,the,woman,parked,the,new,car,it,was,always,at,an,angle.,?,?,?,?,?,?
TeAsP_List4_1,Croatian,228,44,Simple_LateClosure,m,1985,m,Was the town safe?,yes,,,,,,,,,,369,450,766,388,417,374,327,359,356,393,306,432,300,385,276,433,359,327,349,320,323,0,0,0,0,0,0,0,Aspect,11,no,,,,,,,,On,Saturday,"nights,",the,police,department,was,very,busy.,When,the,sheriff,patrolled,the,whole,town,it,was,safe,and,secure.,?,?,?,?,?,?,?
TeAsP_List3_1,Croatian,227,10,Simple_LateClosure,x,2733,x,Did the ice-cream drop down the boy’s pants?,yes,,,,,,,,,,589,423,357,568,428,683,636,525,641,997,470,502,478,483,595,864,440,418,571,488,467,942,0,0,0,0,0,0,Aspect,14,no,,,,,,,,In,the,"park,",two,children,were,eating,some,ice-cream.,As,the,boy,ate,the,chocolate,ice-cream,it,dropped,down,his,clean,shirt.,?,?,?,?,?,?
TeAsP_List2_1,Croatian,226,62,Simple_LateClosure,x,2629,m,Were there different kinds of vehicles at the company?,yes,,,,,,,,,,133,109,150,155,140,174,155,166,171,143,177,184,158,160,152,168,155,145,180,141,173,164,0,0,0,0,0,0,Aspect,9,no,,,,,,,,There,were,many,different,kinds,of,vehicles,at,the,company.,When,George,drove,the,big,lorry,it,made,loud,and,strange,noises.,?,?,?,?,?,?
TeAsP_List1_1,Croatian,225,30,Simple_LateClosure,x,1298,x,Did Mrs. Brown park well?,yes,,,,,,,,,,291,320,289,393,323,424,295,225,293,268,283,219,249,298,222,337,241,251,241,209,286,517,0,0,0,0,0,0,Aspect,20,no,,,,,,,,The,driving,instructor,almost,gave,up,on,Mrs.,Brown.,When,the,woman,parked,the,new,car,it,was,always,at,an,angle.,?,?,?,?,?,?
TeAsP_List1_1,Croatian,225,38,Simple_LateClosure,m,2622,m,Did John and Sam take their guns into the woods?,yes,,,,,,,,,,401,914,335,478,284,311,271,317,366,445,304,620,250,302,356,476,290,392,245,251,311,342,0,0,0,0,0,0,Aspect,4,no,,,,,,,,John,and,Sam,took,their,guns,out,into,the,woods.,As,John,hunted,the,frightened,rabbit,it,escaped,through,the,dark,trees.,?,?,?,?,?,?
TeAsP_List4_1,Croatian,224,35,Simple_LateClosure,m,4989,m,Was the town safe?,yes,,,,,,,,,,708,744,639,761,813,814,641,695,1441,674,785,817,711,976,734,873,736,861,770,817,1118,0,0,0,0,0,0,0,Aspect,11,no,,,,,,,,On,Saturday,"nights,",the,police,department,was,very,busy.,When,the,sheriff,patrolled,the,whole,town,it,was,safe,and,secure.,?,?,?,?,?,?,?
TeAsP_List3_1,Croatian,223,69,Simple_LateClosure,x,3916,x,Did the ice-cream drop down the boy’s pants?,yes,,,,,,,,,,490,324,600,273,366,267,394,275,285,410,351,430,297,274,285,337,462,357,314,332,418,295,0,0,0,0,0,0,Aspect,14,no,,,,,,,,In,the,"park,",two,children,were,eating,some,ice-cream.,As,the,boy,ate,the,chocolate,ice-cream,it,dropped,down,his,clean,shirt.,?,?,?,?,?,?
TeAsP_List2_1,Croatian,222,20,Simple_LateClosure,m,3332,m,Were there different kinds of vehicles at the company?,yes,,,,,,,,,,221,200,409,249,222,226,201,288,241,231,391,274,283,285,253,213,235,277,233,153,360,567,0,0,0,0,0,0,Aspect,9,no,,,,,,,,There,were,many,different,kinds,of,vehicles,at,the,company.,When,George,drove,the,big,lorry,it,made,loud,and,strange,noises.,?,?,?,?,?,?
TeAsP_List1_1,Croatian,221,7,Simple_LateClosure,m,2637,m,Did John and Sam take their guns into the woods?,yes,,,,,,,,,,243,202,209,241,226,272,340,288,280,259,532,319,367,269,1324,349,511,437,435,404,417,621,0,0,0,0,0,0,Aspect,4,no,,,,,,,,John,and,Sam,took,their,guns,out,into,the,woods.,As,John,hunted,the,frightened,rabbit,it,escaped,through,the,dark,trees.,?,?,?,?,?,?
TeAsP_List1_1,Croatian,221,52,Simple_LateClosure,x,2559,x,Did Mrs. Brown park well?,yes,,,,,,,,,,302,281,267,268,317,280,276,204,404,294,317,314,275,210,232,221,373,249,215,242,270,264,0,0,0,0,0,0,Aspect,20,no,,,,,,,,The,driving,instructor,almost,gave,up,on,Mrs.,Brown.,When,the,woman,parked,the,new,car,it,was,always,at,an,angle.,?,?,?,?,?,?
TeAsP_List4_1,Croatian,220,38,Simple_LateClosure,m,896,m,Was the town safe?,yes,,,,,,,,,,316,222,246,447,297,312,295,277,220,300,291,285,244,266,231,227,255,275,304,299,330,0,0,0,0,0,0,0,Aspect,11,no,,,,,,,,On,Saturday,"nights,",the,police,department,was,very,busy.,When,the,sheriff,patrolled,the,whole,town,it,was,safe,and,secure.,?,?,?,?,?,?,?
TeAsP_List3_1,Croatian,219,24,Simple_LateClosure,x,2923,x,Did the ice-cream drop down the boy’s pants?,yes,,,,,,,,,,415,397,397,408,415,420,411,709,419,540,389,470,541,385,447,514,415,428,463,424,442,394,0,0,0,0,0,0,Aspect,14,no,,,,,,,,In,the,"park,",two,children,were,eating,some,ice-cream.,As,the,boy,ate,the,chocolate,ice-cream,it,dropped,down,his,clean,shirt.,?,?,?,?,?,?
TeAsP_List1_1,Croatian,217,11,Simple_LateClosure,x,1753,x,Did Mrs. Brown park well?,yes,,,,,,,,,,258,382,599,325,330,348,381,582,533,490,409,414,385,334,314,334,379,441,375,324,338,1030,0,0,0,0,0,0,Aspect,20,no,,,,,,,,The,driving,instructor,almost,gave,up,on,Mrs.,Brown.,When,the,woman,parked,the,new,car,it,was,always,at,an,angle.,?,?,?,?,?,?
TeAsP_List1_1,Croatian,217,77,Simple_LateClosure,m,6484,m,Did John and Sam take their guns into the woods?,yes,,,,,,,,,,402,430,410,403,397,401,408,376,363,442,398,387,431,428,379,373,405,366,447,469,396,337,0,0,0,0,0,0,Aspect,4,no,,,,,,,,John,and,Sam,took,their,guns,out,into,the,woods.,As,John,hunted,the,frightened,rabbit,it,escaped,through,the,dark,trees.,?,?,?,?,?,?
TeAsP_List4_1,Croatian,216,17,Simple_LateClosure,m,1232,m,Was the town safe?,yes,,,,,,,,,,283,161,260,246,274,293,273,189,202,340,279,198,274,287,258,193,234,234,223,221,266,0,0,0,0,0,0,0,Aspect,11,no,,,,,,,,On,Saturday,"nights,",the,police,department,was,very,busy.,When,the,sheriff,patrolled,the,whole,town,it,was,safe,and,secure.,?,?,?,?,?,?,?
TeAsP_List3_1,Croatian,215,55,Simple_LateClosure,x,4470,x,Did the ice-cream drop down the boy’s pants?,yes,,,,,,,,,,433,278,369,434,321,306,247,306,380,427,353,345,468,313,308,407,550,360,315,333,318,499,0,0,0,0,0,0,Aspect,14,no,,,,,,,,In,the,"park,",two,children,were,eating,some,ice-cream.,As,the,boy,ate,the,chocolate,ice-cream,it,dropped,down,his,clean,shirt.,?,?,?,?,?,?
TeAsP_List2_1,Croatian,214,28,Simple_LateClosure,m,5317,m,Were there different kinds of vehicles at the company?,yes,,,,,,,,,,515,305,322,339,329,329,342,366,323,326,328,253,425,409,302,605,292,291,266,311,306,278,0,0,0,0,0,0,Aspect,9,no,,,,,,,,There,were,many,different,kinds,of,vehicles,at,the,company.,When,George,drove,the,big,lorry,it,made,loud,and,strange,noises.,?,?,?,?,?,?
TeAsP_List1_1,Croatian,213,55,Simple_LateClosure,x,2021,x,Did Mrs. Brown park well?,yes,,,,,,,,,,419,382,748,688,602,433,331,555,605,479,383,417,457,382,352,476,393,872,430,391,479,570,0,0,0,0,0,0,Aspect,20,no,,,,,,,,The,driving,instructor,almost,gave,up,on,Mrs.,Brown.,When,the,woman,parked,the,new,car,it,was,always,at,an,angle.,?,?,?,?,?,?
TeAsP_List1_1,Croatian,213,61,Simple_LateClosure,m,3577,m,Did John and Sam take their guns into the woods?,yes,,,,,,,,,,430,451,438,486,448,440,616,522,328,485,496,729,339,396,511,424,462,419,397,371,394,388,0,0,0,0,0,0,Aspect,4,no,,,,,,,,John,and,Sam,took,their,guns,out,into,the,woods.,As,John,hunted,the,frightened,rabbit,it,escaped,through,the,dark,trees.,?,?,?,?,?,?
TeAsP_List4_1,Croatian,212,78,Simple_LateClosure,m,1313,m,Was the town safe?,yes,,,,,,,,,,262,403,398,329,305,223,350,371,240,278,264,242,246,317,298,287,260,266,1078,483,364,0,0,0,0,0,0,0,Aspect,11,no,,,,,,,,On,Saturday,"nights,",the,police,department,was,very,busy.,When,the,sheriff,patrolled,the,whole,town,it,was,safe,and,secure.,?,?,?,?,?,?,?
TeAsP_List3_1,Croatian,211,4,Simple_LateClosure,x,3223,x,Did the ice-cream drop down the boy’s pants?,yes,,,,,,,,,,1069,485,435,4917,1102,503,581,413,625,708,648,594,614,763,1235,774,715,727,790,655,727,548,0,0,0,0,0,0,Aspect,14,no,,,,,,,,In,the,"park,",two,children,were,eating,some,ice-cream.,As,the,boy,ate,the,chocolate,ice-cream,it,dropped,down,his,clean,shirt.,?,?,?,?,?,?
TeAsP_List2_1,Croatian,210,17,Simple_LateClosure,x,9683,m,Were there different kinds of vehicles at the company?,yes,,,,,,,,,,374,439,435,357,524,463,636,631,810,519,560,540,518,627,603,599,578,885,479,404,531,432,0,0,0,0,0,0,Aspect,9,no,,,,,,,,There,were,many,different,kinds,of,vehicles,at,the,company.,When,George,drove,the,big,lorry,it,made,loud,and,strange,noises.,?,?,?,?,?,?
TeAsP_List1_1,Croatian,209,34,Simple_LateClosure,m,3441,m,Did John and Sam take their guns into the woods?,yes,,,,,,,,,,357,406,386,350,203,405,187,249,274,217,346,220,225,277,451,452,305,213,286,292,250,310,0,0,0,0,0,0,Aspect,4,no,,,,,,,,John,and,Sam,took,their,guns,out,into,the,woods.,As,John,hunted,the,frightened,rabbit,it,escaped,through,the,dark,trees.,?,?,?,?,?,?
TeAsP_List1_1,Croatian,209,63,Simple_LateClosure,x,1429,x,Did Mrs. Brown park well?,yes,,,,,,,,,,361,1660,297,259,298,275,219,228,266,465,179,248,261,221,351,188,211,217,219,235,252,561,0,0,0,0,0,0,Aspect,20,no,,,,,,,,The,driving,instructor,almost,gave,up,on,Mrs.,Brown.,When,the,woman,parked,the,new,car,it,was,always,at,an,angle.,?,?,?,?,?,?
TeAsP_List3_1,Croatian,207,5,Simple_LateClosure,m,1699,x,Did the ice-cream drop down the boy’s pants?,yes,,,,,,,,,,289,306,252,269,251,277,262,284,266,438,245,286,268,257,266,281,334,303,284,281,268,588,0,0,0,0,0,0,Aspect,14,no,,,,,,,,In,the,"park,",two,children,were,eating,some,ice-cream.,As,the,boy,ate,the,chocolate,ice-cream,it,dropped,down,his,clean,shirt.,?,?,?,?,?,?
TeAsP_List2_1,Croatian,206,65,Simple_LateClosure,m,5547,m,Were there different kinds of vehicles at the company?,yes,,,,,,,,,,316,311,246,251,282,268,252,284,269,245,360,359,308,331,293,325,328,312,308,315,277,301,0,0,0,0,0,0,Aspect,9,no,,,,,,,,There,were,many,different,kinds,of,vehicles,at,the,company.,When,George,drove,the,big,lorry,it,made,loud,and,strange,noises.,?,?,?,?,?,?
TeAsP_List1_1,Croatian,205,4,Simple_LateClosure,m,6815,m,Did John and Sam take their guns into the woods?,yes,,,,,,,,,,1880,854,582,1097,550,630,618,672,609,691,625,505,1094,497,1171,816,690,669,609,566,510,721,0,0,0,0,0,0,Aspect,4,no,,,,,,,,John,and,Sam,took,their,guns,out,into,the,woods.,As,John,hunted,the,frightened,rabbit,it,escaped,through,the,dark,trees.,?,?,?,?,?,?
TeAsP_List1_1,Croatian,205,44,Simple_LateClosure,x,2142,x,Did Mrs. Brown park well?,yes,,,,,,,,,,345,369,484,486,394,464,508,605,521,670,658,439,538,527,500,475,412,405,423,488,425,591,0,0,0,0,0,0,Aspect,20,no,,,,,,,,The,driving,instructor,almost,gave,up,on,Mrs.,Brown.,When,the,woman,parked,the,new,car,it,was,always,at,an,angle.,?,?,?,?,?,?
TeAsP_List4_1,Croatian,204,7,Simple_LateClosure,m,2727,m,Was the town safe?,yes,,,,,,,,,,419,616,466,356,363,449,673,359,1210,350,344,492,443,458,541,360,484,323,369,341,377,0,0,0,0,0,0,0,Aspect,11,no,,,,,,,,On,Saturday,"nights,",the,police,department,was,very,busy.,When,the,sheriff,patrolled,the,whole,town,it,was,safe,and,secure.,?,?,?,?,?,?,?
TeAsP_List3_1,Croatian,203,23,Simple_LateClosure,x,3918,x,Did the ice-cream drop down the boy’s pants?,yes,,,,,,,,,,282,288,204,918,299,377,290,259,383,685,324,234,280,240,430,321,294,420,357,277,374,237,0,0,0,0,0,0,Aspect,14,no,,,,,,,,In,the,"park,",two,children,were,eating,some,ice-cream.,As,the,boy,ate,the,chocolate,ice-cream,it,dropped,down,his,clean,shirt.,?,?,?,?,?,?
TeAsP_List2_1,Croatian,202,41,Simple_LateClosure,m,3232,m,Were there different kinds of vehicles at the company?,yes,,,,,,,,,,305,174,179,167,217,172,272,198,259,260,407,248,329,290,317,287,327,269,306,270,345,331,0,0,0,0,0,0,Aspect,9,no,,,,,,,,There,were,many,different,kinds,of,vehicles,at,the,company.,When,George,drove,the,big,lorry,it,made,loud,and,strange,noises.,?,?,?,?,?,?
TeAsP_List1_1,Croatian,201,50,Simple_LateClosure,m,2278,m,Did John and Sam take their guns into the woods?,yes,,,,,,,,,,352,479,463,307,338,385,339,272,285,353,353,280,256,325,252,433,273,56,409,240,443,315,0,0,0,0,0,0,Aspect,4,no,,,,,,,,John,and,Sam,took,their,guns,out,into,the,woods.,As,John,hunted,the,frightened,rabbit,it,escaped,through,the,dark,trees.,?,?,?,?,?,?
TeAsP_List1_1,Croatian,201,78,Simple_LateClosure,x,1275,x,Did Mrs. Brown park well?,yes,,,,,,,,,,344,381,493,364,379,347,294,277,276,316,263,233,337,279,349,342,271,313,316,350,310,501,0,0,0,0,0,0,Aspect,20,no,,,,,,,,The,driving,instructor,almost,gave,up,on,Mrs.,Brown.,When,the,woman,parked,the,new,car,it,was,always,at,an,angle.,?,?,?,?,?,?
TeAsP_List3_1,Croatian,243,21,Prog_LateClosure,m,1205,m,Did the furniture look expensive?,yes,,,,,,,,,,287,446,301,262,292,250,269,335,332,989,273,275,262,330,309,633,489,352,443,662,733,0,0,0,0,0,0,0,Aspect,16,no,,,,,,,,Sarah,and,Jane,owned,a,shop,selling,old,furniture.,When,Sarah,was,polishing,the,cheap,furniture,it,looked,new,and,expensive.,?,?,?,?,?,?,?
TeAsP_List3_1,Croatian,243,41,Prog_LateClosure,x,2050,x,Were there three Italian chefs working at the restaurant?,yes,,,,,,,,,,279,301,327,333,350,485,443,314,573,861,446,300,303,297,313,278,409,288,298,278,302,859,0,0,0,0,0,0,Aspect,8,no,,,,,,,,There,were,two,Italian,chefs,working,in,the,restaurant.,Because,Mario,was,cooking,the,fresh,pasta,it,was,made,to,real,perfection.,?,?,?,?,?,?
TeAsP_List2_1,Croatian,242,12,Prog_LateClosure,x,2252,x,Did Tony hate to sing at parties?,yes,,,,,,,,,,256,290,342,350,384,390,432,465,951,319,411,260,284,287,301,300,589,648,408,596,0,0,0,0,0,0,0,0,Aspect,3,no,,,,,,,,Tony,and,his,friends,loved,to,sing,at,parties.,When,Tony,was,singing,the,drinking,song,it,sounded,like,opera.,?,?,?,?,?,?,?,?
TeAsP_List4_1,Croatian,240,16,Prog_LateClosure,m,2866,x,Was the bar full?,yes,,,,,,,,,,330,357,419,337,339,326,333,348,370,337,1017,419,834,2827,1162,440,379,330,371,403,578,366,0,0,0,0,0,0,Aspect,1,no,,,,,,,,It,was,late,and,the,bar,was,full.,As,the,men,were,drinking,the,strong,beer,it,was,spilled,on,the,floor.,?,?,?,?,?,?
TeAsP_List3_1,Croatian,239,4,Prog_LateClosure,m,3725,m,Did the furniture look expensive?,yes,,,,,,,,,,453,474,359,476,338,325,554,532,4252,768,682,453,560,346,339,395,332,436,282,367,548,0,0,0,0,0,0,0,Aspect,16,no,,,,,,,,Sarah,and,Jane,owned,a,shop,selling,old,furniture.,When,Sarah,was,polishing,the,cheap,furniture,it,looked,new,and,expensive.,?,?,?,?,?,?,?
TeAsP_List3_1,Croatian,239,84,Prog_LateClosure,x,1913,x,Were there three Italian chefs working at the restaurant?,yes,,,,,,,,,,1055,289,246,314,354,357,360,303,675,953,209,301,263,276,298,239,299,277,276,250,265,1073,0,0,0,0,0,0,Aspect,8,no,,,,,,,,There,were,two,Italian,chefs,working,in,the,restaurant.,Because,Mario,was,cooking,the,fresh,pasta,it,was,made,to,real,perfection.,?,?,?,?,?,?
TeAsP_List4_1,Croatian,236,53,Prog_LateClosure,m,4377,x,Was the bar full?,yes,,,,,,,,,,317,209,360,317,351,270,281,225,280,294,282,936,645,343,332,239,237,290,411,305,273,232,0,0,0,0,0,0,Aspect,1,no,,,,,,,,It,was,late,and,the,bar,was,full.,As,the,men,were,drinking,the,strong,beer,it,was,spilled,on,the,floor.,?,?,?,?,?,?
TeAsP_List3_1,Croatian,235,64,Prog_LateClosure,m,1577,m,Did the furniture look expensive?,yes,,,,,,,,,,304,271,262,291,416,1093,395,317,240,341,391,315,258,322,327,546,301,363,325,408,575,0,0,0,0,0,0,0,Aspect,16,no,,,,,,,,Sarah,and,Jane,owned,a,shop,selling,old,furniture.,When,Sarah,was,polishing,the,cheap,furniture,it,looked,new,and,expensive.,?,?,?,?,?,?,?
TeAsP_List3_1,Croatian,235,73,Prog_LateClosure,x,2290,x,Were there three Italian chefs working at the restaurant?,yes,,,,,,,,,,321,183,238,273,337,600,420,480,344,555,218,302,327,356,235,279,274,272,271,344,312,658,0,0,0,0,0,0,Aspect,8,no,,,,,,,,There,were,two,Italian,chefs,working,in,the,restaurant.,Because,Mario,was,cooking,the,fresh,pasta,it,was,made,to,real,perfection.,?,?,?,?,?,?
TeAsP_List2_1,Croatian,234,46,Prog_LateClosure,x,1992,x,Did Tony hate to sing at parties?,yes,,,,,,,,,,293,107,170,170,167,213,198,180,129,158,178,197,162,193,193,198,202,204,220,217,0,0,0,0,0,0,0,0,Aspect,3,no,,,,,,,,Tony,and,his,friends,loved,to,sing,at,parties.,When,Tony,was,singing,the,drinking,song,it,sounded,like,opera.,?,?,?,?,?,?,?,?
TeAsP_List4_1,Croatian,232,55,Prog_LateClosure,m,1839,x,Was the bar full?,yes,,,,,,,,,,1143,278,215,334,326,243,331,448,490,283,213,355,476,404,386,395,421,351,344,378,347,394,0,0,0,0,0,0,Aspect,1,no,,,,,,,,It,was,late,and,the,bar,was,full.,As,the,men,were,drinking,the,strong,beer,it,was,spilled,on,the,floor.,?,?,?,?,?,?
TeAsP_List3_1,Croatian,231,11,Prog_LateClosure,m,1354,m,Did the furniture look expensive?,yes,,,,,,,,,,480,225,248,285,265,255,341,244,271,315,253,267,246,293,317,275,267,332,286,289,288,0,0,0,0,0,0,0,Aspect,16,no,,,,,,,,Sarah,and,Jane,owned,a,shop,selling,old,furniture.,When,Sarah,was,polishing,the,cheap,furniture,it,looked,new,and,expensive.,?,?,?,?,?,?,?
TeAsP_List3_1,Croatian,231,79,Prog_LateClosure,x,2532,x,Were there three Italian chefs working at the restaurant?,yes,,,,,,,,,,357,326,365,348,311,294,305,251,340,355,678,322,357,346,299,328,297,367,305,352,325,377,0,0,0,0,0,0,Aspect,8,no,,,,,,,,There,were,two,Italian,chefs,working,in,the,restaurant.,Because,Mario,was,cooking,the,fresh,pasta,it,was,made,to,real,perfection.,?,?,?,?,?,?
TeAsP_List2_1,Croatian,230,27,Prog_LateClosure,x,1920,x,Did Tony hate to sing at parties?,yes,,,,,,,,,,1071,651,525,858,919,375,331,1088,1540,3242,431,315,538,415,1008,614,568,574,563,1188,0,0,0,0,0,0,0,0,Aspect,3,no,,,,,,,,Tony,and,his,friends,loved,to,sing,at,parties.,When,Tony,was,singing,the,drinking,song,it,sounded,like,opera.,?,?,?,?,?,?,?,?
TeAsP_List4_1,Croatian,228,1,Prog_LateClosure,m,1041,x,Was the bar full?,yes,,,,,,,,,,536,344,387,388,474,386,456,1021,639,377,429,393,434,441,480,387,371,375,523,431,335,468,0,0,0,0,0,0,Aspect,1,no,,,,,,,,It,was,late,and,the,bar,was,full.,As,the,men,were,drinking,the,strong,beer,it,was,spilled,on,the,floor.,?,?,?,?,?,?
TeAsP_List3_1,Croatian,227,31,Prog_LateClosure,m,4175,x,Were there three Italian chefs working at the restaurant?,yes,,,,,,,,,,513,282,611,316,326,314,286,525,223,354,376,333,354,409,392,328,380,389,312,390,378,290,0,0,0,0,0,0,Aspect,8,no,,,,,,,,There,were,two,Italian,chefs,working,in,the,restaurant.,Because,Mario,was,cooking,the,fresh,pasta,it,was,made,to,real,perfection.,?,?,?,?,?,?
TeAsP_List3_1,Croatian,227,84,Prog_LateClosure,m,2439,m,Did the furniture look expensive?,yes,,,,,,,,,,202,454,326,294,1046,399,1287,329,335,352,249,304,290,296,256,266,289,231,247,240,303,0,0,0,0,0,0,0,Aspect,16,no,,,,,,,,Sarah,and,Jane,owned,a,shop,selling,old,furniture.,When,Sarah,was,polishing,the,cheap,furniture,it,looked,new,and,expensive.,?,?,?,?,?,?,?
TeAsP_List2_1,Croatian,226,35,Prog_LateClosure,x,2132,x,Did Tony hate to sing at parties?,yes,,,,,,,,,,164,152,158,148,162,176,199,189,219,298,291,262,190,213,150,220,206,254,168,191,0,0,0,0,0,0,0,0,Aspect,3,no,,,,,,,,Tony,and,his,friends,loved,to,sing,at,parties.,When,Tony,was,singing,the,drinking,song,it,sounded,like,opera.,?,?,?,?,?,?,?,?
TeAsP_List4_1,Croatian,224,58,Prog_LateClosure,m,1259,x,Was the bar full?,yes,,,,,,,,,,333,346,382,332,403,423,374,335,446,346,329,357,404,399,388,399,408,357,401,437,377,1127,0,0,0,0,0,0,Aspect,1,no,,,,,,,,It,was,late,and,the,bar,was,full.,As,the,men,were,drinking,the,strong,beer,it,was,spilled,on,the,floor.,?,?,?,?,?,?
TeAsP_List3_1,Croatian,223,49,Prog_LateClosure,m,2704,m,Did the furniture look expensive?,yes,,,,,,,,,,364,394,362,368,378,310,814,456,1031,287,319,268,326,323,328,364,419,356,330,290,397,0,0,0,0,0,0,0,Aspect,16,no,,,,,,,,Sarah,and,Jane,owned,a,shop,selling,old,furniture.,When,Sarah,was,polishing,the,cheap,furniture,it,looked,new,and,expensive.,?,?,?,?,?,?,?
TeAsP_List3_1,Croatian,223,81,Prog_LateClosure,x,2881,x,Were there three Italian chefs working at the restaurant?,yes,,,,,,,,,,345,319,212,320,227,426,268,255,373,274,255,341,236,415,151,390,244,342,285,221,806,624,0,0,0,0,0,0,Aspect,8,no,,,,,,,,There,were,two,Italian,chefs,working,in,the,restaurant.,Because,Mario,was,cooking,the,fresh,pasta,it,was,made,to,real,perfection.,?,?,?,?,?,?
TeAsP_List2_1,Croatian,222,53,Prog_LateClosure,x,2054,x,Did Tony hate to sing at parties?,yes,,,,,,,,,,219,192,245,199,198,229,230,243,414,233,238,298,276,236,250,241,247,249,270,216,0,0,0,0,0,0,0,0,Aspect,3,no,,,,,,,,Tony,and,his,friends,loved,to,sing,at,parties.,When,Tony,was,singing,the,drinking,song,it,sounded,like,opera.,?,?,?,?,?,?,?,?
TeAsP_List4_1,Croatian,220,27,Prog_LateClosure,m,863,x,Was the bar full?,yes,,,,,,,,,,321,248,462,403,325,389,292,290,303,343,268,296,303,310,334,391,289,333,363,398,335,320,0,0,0,0,0,0,Aspect,1,no,,,,,,,,It,was,late,and,the,bar,was,full.,As,the,men,were,drinking,the,strong,beer,it,was,spilled,on,the,floor.,?,?,?,?,?,?
TeAsP_List3_1,Croatian,219,16,Prog_LateClosure,m,1360,m,Did the furniture look expensive?,yes,,,,,,,,,,616,469,407,403,430,361,500,403,413,431,526,448,556,557,474,497,857,852,677,669,822,0,0,0,0,0,0,0,Aspect,16,no,,,,,,,,Sarah,and,Jane,owned,a,shop,selling,old,furniture.,When,Sarah,was,polishing,the,cheap,furniture,it,looked,new,and,expensive.,?,?,?,?,?,?,?
TeAsP_List3_1,Croatian,219,67,Prog_LateClosure,m,7023,x,Were there three Italian chefs working at the restaurant?,yes,,,,,,,,,,377,293,306,279,393,606,416,393,420,450,530,413,373,602,790,547,383,454,340,399,329,332,0,0,0,0,0,0,Aspect,8,no,,,,,,,,There,were,two,Italian,chefs,working,in,the,restaurant.,Because,Mario,was,cooking,the,fresh,pasta,it,was,made,to,real,perfection.,?,?,?,?,?,?
TeAsP_List4_1,Croatian,216,3,Prog_LateClosure,m,1152,x,Was the bar full?,yes,,,,,,,,,,389,157,195,371,156,345,338,579,567,272,217,321,362,308,239,325,367,784,248,327,299,423,0,0,0,0,0,0,Aspect,1,no,,,,,,,,It,was,late,and,the,bar,was,full.,As,the,men,were,drinking,the,strong,beer,it,was,spilled,on,the,floor.,?,?,?,?,?,?
TeAsP_List3_1,Croatian,215,12,Prog_LateClosure,x,2480,x,Were there three Italian chefs working at the restaurant?,yes,,,,,,,,,,342,406,318,378,332,358,328,284,234,394,306,324,284,350,234,372,313,293,289,288,238,634,0,0,0,0,0,0,Aspect,8,no,,,,,,,,There,were,two,Italian,chefs,working,in,the,restaurant.,Because,Mario,was,cooking,the,fresh,pasta,it,was,made,to,real,perfection.,?,?,?,?,?,?
TeAsP_List3_1,Croatian,215,33,Prog_LateClosure,m,1415,m,Did the furniture look expensive?,yes,,,,,,,,,,629,356,295,275,312,401,312,305,370,406,291,313,325,323,309,348,356,304,312,328,334,0,0,0,0,0,0,0,Aspect,16,no,,,,,,,,Sarah,and,Jane,owned,a,shop,selling,old,furniture.,When,Sarah,was,polishing,the,cheap,furniture,it,looked,new,and,expensive.,?,?,?,?,?,?,?
TeAsP_List2_1,Croatian,214,8,Prog_LateClosure,x,1973,x,Did Tony hate to sing at parties?,yes,,,,,,,,,,455,547,383,387,361,441,388,357,413,336,331,332,395,784,369,331,362,326,305,477,0,0,0,0,0,0,0,0,Aspect,3,no,,,,,,,,Tony,and,his,friends,loved,to,sing,at,parties.,When,Tony,was,singing,the,drinking,song,it,sounded,like,opera.,?,?,?,?,?,?,?,?
TeAsP_List4_1,Croatian,212,25,Prog_LateClosure,m,1412,x,Was the bar full?,yes,,,,,,,,,,294,315,292,288,283,252,280,282,405,279,281,269,327,606,320,310,317,298,284,340,304,263,0,0,0,0,0,0,Aspect,1,no,,,,,,,,It,was,late,and,the,bar,was,full.,As,the,men,were,drinking,the,strong,beer,it,was,spilled,on,the,floor.,?,?,?,?,?,?
TeAsP_List3_1,Croatian,211,38,Prog_LateClosure,m,2402,m,Did the furniture look expensive?,yes,,,,,,,,,,1274,423,484,420,439,432,612,543,588,657,403,480,684,473,687,1765,471,499,444,756,714,0,0,0,0,0,0,0,Aspect,16,no,,,,,,,,Sarah,and,Jane,owned,a,shop,selling,old,furniture.,When,Sarah,was,polishing,the,cheap,furniture,it,looked,new,and,expensive.,?,?,?,?,?,?,?
TeAsP_List3_1,Croatian,211,77,Prog_LateClosure,x,3737,x,Were there three Italian chefs working at the restaurant?,yes,,,,,,,,,,610,824,950,929,1126,510,442,466,811,707,327,436,497,379,566,460,465,373,384,476,453,1113,0,0,0,0,0,0,Aspect,8,no,,,,,,,,There,were,two,Italian,chefs,working,in,the,restaurant.,Because,Mario,was,cooking,the,fresh,pasta,it,was,made,to,real,perfection.,?,?,?,?,?,?
TeAsP_List2_1,Croatian,210,24,Prog_LateClosure,x,2459,x,Did Tony hate to sing at parties?,yes,,,,,,,,,,449,484,396,455,315,396,475,667,347,575,359,407,370,411,335,450,837,450,500,719,0,0,0,0,0,0,0,0,Aspect,3,no,,,,,,,,Tony,and,his,friends,loved,to,sing,at,parties.,When,Tony,was,singing,the,drinking,song,it,sounded,like,opera.,?,?,?,?,?,?,?,?
TeAsP_List3_1,Croatian,207,36,Prog_LateClosure,m,2024,x,Were there three Italian chefs working at the restaurant?,yes,,,,,,,,,,273,226,232,268,267,258,267,244,240,308,260,259,212,263,274,253,291,220,257,254,241,637,0,0,0,0,0,0,Aspect,8,no,,,,,,,,There,were,two,Italian,chefs,working,in,the,restaurant.,Because,Mario,was,cooking,the,fresh,pasta,it,was,made,to,real,perfection.,?,?,?,?,?,?
TeAsP_List3_1,Croatian,207,61,Prog_LateClosure,m,1948,m,Did the furniture look expensive?,yes,,,,,,,,,,366,399,493,394,328,361,330,324,834,451,646,346,370,364,301,334,315,357,319,311,361,0,0,0,0,0,0,0,Aspect,16,no,,,,,,,,Sarah,and,Jane,owned,a,shop,selling,old,furniture.,When,Sarah,was,polishing,the,cheap,furniture,it,looked,new,and,expensive.,?,?,?,?,?,?,?
TeAsP_List2_1,Croatian,206,64,Prog_LateClosure,x,2604,x,Did Tony hate to sing at parties?,yes,,,,,,,,,,289,253,242,263,307,499,412,588,426,847,309,282,328,323,302,329,355,332,353,334,0,0,0,0,0,0,0,0,Aspect,3,no,,,,,,,,Tony,and,his,friends,loved,to,sing,at,parties.,When,Tony,was,singing,the,drinking,song,it,sounded,like,opera.,?,?,?,?,?,?,?,?
