Group,Participant,Trial,Response,Condition,Correct,q1,S1.RT,S2.RT,S3.RT,S4.RT,S5.RT,S6.RT,S7.RT,S8.RT,S9.RT,S10.RT,S11.RT,S12.RT,S13.RT,S14.RT,S15.RT,S16.RT,S17.RT,S18.RT,S19.RT,S20.RT,S21.RT,S22.RT,S23.RT,S24.RT,S25.RT,S26.RT,S27.RT,S28.RT,S29.RT,S30.RT,S31.RT,S32.RT,S33.RT,S34.RT,S35.RT,Study,Item,w1,w2,w3,w4,w5,w6,w7,w8,w9,w10,w11,w12,w13,w14,w15,w16,w17,w18,w19,w20,w21,w22,w23,w24,w25,w26,w27,w28,w29,w30,w31,w32,w33,w34,w35
Spanish,302,4,m,Prog_EarlyClosure,m,Did the horse jump a fence?,,,,,,,,,362,296,320,327,354,349,359,354,421,329,353,364,366,365,368,332,329,365,360,333,341,0,0,0,0,0,0,Aspect,12,,,,,,,,,Jenny,and,Sam,went,out,for,a,ride.,While,Jenny,was,riding,the,young,horse,decided,to,jump,a,high,fence.,?,?,?,?,?,?
Spanish,306,9,m,Prog_EarlyClosure,m,Did the horse jump a fence?,,,,,,,,,488,346,407,315,365,392,403,363,611,420,386,419,1328,474,701,735,444,597,532,534,913,0,0,0,0,0,0,Aspect,12,,,,,,,,,Jenny,and,Sam,went,out,for,a,ride.,While,Jenny,was,riding,the,young,horse,decided,to,jump,a,high,fence.,?,?,?,?,?,?
Spanish,310,23,m,Prog_EarlyClosure,m,Did the horse jump a fence?,,,,,,,,,478,5322,674,412,450,230,269,232,1443,436,479,676,406,623,542,1703,339,370,405,335,417,0,0,0,0,0,0,Aspect,12,,,,,,,,,Jenny,and,Sam,went,out,for,a,ride.,While,Jenny,was,riding,the,young,horse,decided,to,jump,a,high,fence.,?,?,?,?,?,?
Spanish,318,43,m,Prog_EarlyClosure,m,Did the horse jump a fence?,,,,,,,,,562,570,290,294,293,288,248,305,264,313,284,283,243,259,273,458,342,284,314,282,289,0,0,0,0,0,0,Aspect,12,,,,,,,,,Jenny,and,Sam,went,out,for,a,ride.,While,Jenny,was,riding,the,young,horse,decided,to,jump,a,high,fence.,?,?,?,?,?,?
Spanish,322,32,m,Prog_EarlyClosure,m,Did the horse jump a fence?,,,,,,,,,196,190,240,191,218,167,223,224,257,229,218,185,206,238,237,216,232,210,233,189,203,0,0,0,0,0,0,Aspect,12,,,,,,,,,Jenny,and,Sam,went,out,for,a,ride.,While,Jenny,was,riding,the,young,horse,decided,to,jump,a,high,fence.,?,?,?,?,?,?
Spanish,326,25,m,Prog_EarlyClosure,m,Did the horse jump a fence?,,,,,,,,,233,232,217,324,334,350,191,382,1241,210,244,431,380,527,320,554,376,208,401,328,324,0,0,0,0,0,0,Aspect,12,,,,,,,,,Jenny,and,Sam,went,out,for,a,ride.,While,Jenny,was,riding,the,young,horse,decided,to,jump,a,high,fence.,?,?,?,?,?,?
Spanish,304,8,m,Simple_EarlyClosure,m,Did the horse jump a fence?,,,,,,,,,,331,792,532,493,641,414,388,1444,451,377,431,335,397,560,620,397,456,352,380,474,0,0,0,0,0,0,Aspect,12,,,,,,,,,,Jenny,and,Sam,went,out,for,a,ride.,While,Jenny,rode,the,young,horse,decided,to,jump,a,high,fence.,?,?,?,?,?,?
Spanish,308,62,m,Simple_EarlyClosure,m,Did the horse jump a fence?,,,,,,,,,,270,214,190,201,223,224,202,219,226,641,213,233,218,241,543,209,211,179,188,272,0,0,0,0,0,0,Aspect,12,,,,,,,,,,Jenny,and,Sam,went,out,for,a,ride.,While,Jenny,rode,the,young,horse,decided,to,jump,a,high,fence.,?,?,?,?,?,?
Spanish,312,32,m,Simple_EarlyClosure,m,Did the horse jump a fence?,,,,,,,,,,448,298,397,584,331,497,336,350,541,385,360,364,323,349,416,321,310,411,417,573,0,0,0,0,0,0,Aspect,12,,,,,,,,,,Jenny,and,Sam,went,out,for,a,ride.,While,Jenny,rode,the,young,horse,decided,to,jump,a,high,fence.,?,?,?,?,?,?
Spanish,316,64,m,Simple_EarlyClosure,m,Did the horse jump a fence?,,,,,,,,,,223,326,249,250,272,216,204,258,204,263,211,212,212,237,203,218,202,242,216,244,0,0,0,0,0,0,Aspect,12,,,,,,,,,,Jenny,and,Sam,went,out,for,a,ride.,While,Jenny,rode,the,young,horse,decided,to,jump,a,high,fence.,?,?,?,?,?,?
Spanish,320,23,m,Simple_EarlyClosure,m,Did the horse jump a fence?,,,,,,,,,,152,138,154,137,144,157,163,161,107,174,172,177,175,209,165,174,158,137,193,249,0,0,0,0,0,0,Aspect,12,,,,,,,,,,Jenny,and,Sam,went,out,for,a,ride.,While,Jenny,rode,the,young,horse,decided,to,jump,a,high,fence.,?,?,?,?,?,?
Spanish,324,77,m,Simple_EarlyClosure,m,Did the horse jump a fence?,,,,,,,,,,369,460,439,481,498,364,297,531,908,294,472,410,394,405,394,592,379,395,341,362,0,0,0,0,0,0,Aspect,12,,,,,,,,,,Jenny,and,Sam,went,out,for,a,ride.,While,Jenny,rode,the,young,horse,decided,to,jump,a,high,fence.,?,?,?,?,?,?
Spanish,328,12,m,Simple_EarlyClosure,m,Did the horse jump a fence?,,,,,,,,,,174,186,155,163,167,181,167,194,163,149,171,161,184,175,159,186,160,175,175,160,0,0,0,0,0,0,Aspect,12,,,,,,,,,,Jenny,and,Sam,went,out,for,a,ride.,While,Jenny,rode,the,young,horse,decided,to,jump,a,high,fence.,?,?,?,?,?,?
Spanish,302,20,x,Simple_EarlyClosure,x,Did the ice-cream drop down the boy’s pants?,,,,,,,,229,137,143,240,485,342,171,151,187,329,352,126,145,248,159,295,285,271,334,327,309,0,0,0,0,0,0,0,Aspect,14,,,,,,,,In,the,"park,",two,children,were,eating,some,ice-cream.,As,the,boy,ate,the,chocolate,ice-cream,dropped,down,his,clean,shirt.,?,?,?,?,?,?,?
Spanish,306,61,x,Simple_EarlyClosure,x,Did the ice-cream drop down the boy’s pants?,,,,,,,,340,294,321,251,352,399,266,1122,643,366,437,381,575,370,580,644,625,657,313,349,391,0,0,0,0,0,0,0,Aspect,14,,,,,,,,In,the,"park,",two,children,were,eating,some,ice-cream.,As,the,boy,ate,the,chocolate,ice-cream,dropped,down,his,clean,shirt.,?,?,?,?,?,?,?
Spanish,310,70,x,Simple_EarlyClosure,x,Did the ice-cream drop down the boy’s pants?,,,,,,,,363,381,346,333,393,380,421,376,552,381,341,351,609,487,1914,1044,995,817,461,753,1479,0,0,0,0,0,0,0,Aspect,14,,,,,,,,In,the,"park,",two,children,were,eating,some,ice-cream.,As,the,boy,ate,the,chocolate,ice-cream,dropped,down,his,clean,shirt.,?,?,?,?,?,?,?
Spanish,318,35,x,Simple_EarlyClosure,x,Did the ice-cream drop down the boy’s pants?,,,,,,,,300,355,747,266,353,404,300,285,440,331,281,272,289,261,249,289,238,575,325,275,317,0,0,0,0,0,0,0,Aspect,14,,,,,,,,In,the,"park,",two,children,were,eating,some,ice-cream.,As,the,boy,ate,the,chocolate,ice-cream,dropped,down,his,clean,shirt.,?,?,?,?,?,?,?
Spanish,322,63,x,Simple_EarlyClosure,x,Did the ice-cream drop down the boy’s pants?,,,,,,,,169,172,183,153,190,157,170,168,177,195,172,168,209,190,425,182,156,233,188,192,220,0,0,0,0,0,0,0,Aspect,14,,,,,,,,In,the,"park,",two,children,were,eating,some,ice-cream.,As,the,boy,ate,the,chocolate,ice-cream,dropped,down,his,clean,shirt.,?,?,?,?,?,?,?
Spanish,326,70,m,Simple_EarlyClosure,x,Did the ice-cream drop down the boy’s pants?,,,,,,,,311,391,204,758,211,173,161,389,1056,134,124,308,126,104,397,796,175,175,476,288,366,0,0,0,0,0,0,0,Aspect,14,,,,,,,,In,the,"park,",two,children,were,eating,some,ice-cream.,As,the,boy,ate,the,chocolate,ice-cream,dropped,down,his,clean,shirt.,?,?,?,?,?,?,?
Spanish,304,46,x,Prog_EarlyClosure,x,Did the ice-cream drop down the boy’s pants?,,,,,,,354,339,378,307,341,334,332,312,456,336,313,335,355,382,324,393,355,544,362,395,389,328,0,0,0,0,0,0,0,Aspect,14,,,,,,,In,the,"park,",two,children,were,eating,some,ice-cream.,As,the,boy,was,eating,the,chocolate,ice-cream,dropped,down,his,clean,shirt.,?,?,?,?,?,?,?
Spanish,308,2,m,Prog_EarlyClosure,x,Did the ice-cream drop down the boy’s pants?,,,,,,,374,331,378,383,303,385,349,343,552,410,352,309,349,344,345,399,352,611,522,514,343,375,0,0,0,0,0,0,0,Aspect,14,,,,,,,In,the,"park,",two,children,were,eating,some,ice-cream.,As,the,boy,was,eating,the,chocolate,ice-cream,dropped,down,his,clean,shirt.,?,?,?,?,?,?,?
Spanish,312,71,x,Prog_EarlyClosure,x,Did the ice-cream drop down the boy’s pants?,,,,,,,336,241,325,268,385,292,343,371,326,353,296,270,408,427,315,300,330,338,310,299,267,341,0,0,0,0,0,0,0,Aspect,14,,,,,,,In,the,"park,",two,children,were,eating,some,ice-cream.,As,the,boy,was,eating,the,chocolate,ice-cream,dropped,down,his,clean,shirt.,?,?,?,?,?,?,?
Spanish,316,15,x,Prog_EarlyClosure,x,Did the ice-cream drop down the boy’s pants?,,,,,,,216,230,239,239,241,222,179,362,362,311,237,237,361,235,270,322,273,322,306,297,264,305,0,0,0,0,0,0,0,Aspect,14,,,,,,,In,the,"park,",two,children,were,eating,some,ice-cream.,As,the,boy,was,eating,the,chocolate,ice-cream,dropped,down,his,clean,shirt.,?,?,?,?,?,?,?
Spanish,320,77,x,Prog_EarlyClosure,x,Did the ice-cream drop down the boy’s pants?,,,,,,,170,274,115,147,273,118,66,196,176,163,167,166,151,146,940,313,138,187,159,272,203,232,0,0,0,0,0,0,0,Aspect,14,,,,,,,In,the,"park,",two,children,were,eating,some,ice-cream.,As,the,boy,was,eating,the,chocolate,ice-cream,dropped,down,his,clean,shirt.,?,?,?,?,?,?,?
Spanish,324,20,x,Prog_EarlyClosure,x,Did the ice-cream drop down the boy’s pants?,,,,,,,373,243,380,383,510,354,378,337,782,366,313,282,337,383,395,312,444,440,509,372,381,460,0,0,0,0,0,0,0,Aspect,14,,,,,,,In,the,"park,",two,children,were,eating,some,ice-cream.,As,the,boy,was,eating,the,chocolate,ice-cream,dropped,down,his,clean,shirt.,?,?,?,?,?,?,?
Spanish,328,43,m,Prog_EarlyClosure,x,Did the ice-cream drop down the boy’s pants?,,,,,,,117,139,125,164,129,172,168,168,158,183,169,154,193,164,167,179,189,166,186,196,191,191,0,0,0,0,0,0,0,Aspect,14,,,,,,,In,the,"park,",two,children,were,eating,some,ice-cream.,As,the,boy,was,eating,the,chocolate,ice-cream,dropped,down,his,clean,shirt.,?,?,?,?,?,?,?
Spanish,302,63,m,Prog_EarlyClosure,m,Did John and Sam take their guns into the woods?,,,,,,,139,159,135,203,137,218,160,314,182,244,468,128,122,141,337,297,345,439,383,302,284,652,0,0,0,0,0,0,0,Aspect,4,,,,,,,John,and,Sam,took,their,guns,out,into,the,woods.,As,John,was,hunting,the,frightened,rabbit,escaped,through,the,dark,trees.,?,?,?,?,?,?,?
Spanish,306,38,m,Prog_EarlyClosure,m,Did John and Sam take their guns into the woods?,,,,,,,452,358,345,485,301,305,1105,475,366,374,770,402,369,661,425,1153,809,683,755,885,510,661,0,0,0,0,0,0,0,Aspect,4,,,,,,,John,and,Sam,took,their,guns,out,into,the,woods.,As,John,was,hunting,the,frightened,rabbit,escaped,through,the,dark,trees.,?,?,?,?,?,?,?
Spanish,310,67,m,Prog_EarlyClosure,m,Did John and Sam take their guns into the woods?,,,,,,,490,373,294,355,320,339,522,412,353,409,2367,522,371,619,655,853,545,559,1660,524,415,449,0,0,0,0,0,0,0,Aspect,4,,,,,,,John,and,Sam,took,their,guns,out,into,the,woods.,As,John,was,hunting,the,frightened,rabbit,escaped,through,the,dark,trees.,?,?,?,?,?,?,?
Spanish,318,81,m,Prog_EarlyClosure,m,Did John and Sam take their guns into the woods?,,,,,,,312,258,239,240,292,263,281,268,265,237,400,247,266,269,264,262,506,290,336,269,275,287,0,0,0,0,0,0,0,Aspect,4,,,,,,,John,and,Sam,took,their,guns,out,into,the,woods.,As,John,was,hunting,the,frightened,rabbit,escaped,through,the,dark,trees.,?,?,?,?,?,?,?
Spanish,322,20,m,Prog_EarlyClosure,m,Did John and Sam take their guns into the woods?,,,,,,,160,361,212,219,262,187,229,221,218,224,352,218,272,270,252,237,516,269,228,265,247,212,0,0,0,0,0,0,0,Aspect,4,,,,,,,John,and,Sam,took,their,guns,out,into,the,woods.,As,John,was,hunting,the,frightened,rabbit,escaped,through,the,dark,trees.,?,?,?,?,?,?,?
Spanish,326,8,m,Prog_EarlyClosure,m,Did John and Sam take their guns into the woods?,,,,,,,1420,381,1129,707,413,1586,353,497,360,2092,293,378,305,875,392,1597,479,809,1216,425,451,539,0,0,0,0,0,0,0,Aspect,4,,,,,,,John,and,Sam,took,their,guns,out,into,the,woods.,As,John,was,hunting,the,frightened,rabbit,escaped,through,the,dark,trees.,?,?,?,?,?,?,?
Spanish,304,63,m,Simple_EarlyClosure,m,Did John and Sam take their guns into the woods?,,,,,,,,363,218,217,193,378,325,411,1028,333,297,1584,389,423,311,471,341,346,600,386,309,299,0,0,0,0,0,0,0,Aspect,4,,,,,,,,John,and,Sam,took,their,guns,out,into,the,woods.,As,John,hunted,the,frightened,rabbit,escaped,through,the,dark,trees.,?,?,?,?,?,?,?
Spanish,308,24,m,Simple_EarlyClosure,m,Did John and Sam take their guns into the woods?,,,,,,,,263,232,249,249,574,319,353,286,222,320,1204,242,243,326,288,948,465,504,380,280,283,0,0,0,0,0,0,0,Aspect,4,,,,,,,,John,and,Sam,took,their,guns,out,into,the,woods.,As,John,hunted,the,frightened,rabbit,escaped,through,the,dark,trees.,?,?,?,?,?,?,?
Spanish,312,18,m,Simple_EarlyClosure,m,Did John and Sam take their guns into the woods?,,,,,,,,448,455,375,350,393,390,424,365,300,364,398,279,329,390,661,552,553,350,301,271,423,0,0,0,0,0,0,0,Aspect,4,,,,,,,,John,and,Sam,took,their,guns,out,into,the,woods.,As,John,hunted,the,frightened,rabbit,escaped,through,the,dark,trees.,?,?,?,?,?,?,?
Spanish,316,42,m,Simple_EarlyClosure,m,Did John and Sam take their guns into the woods?,,,,,,,,201,188,213,291,217,249,218,250,245,247,206,191,199,226,217,431,216,227,243,246,256,0,0,0,0,0,0,0,Aspect,4,,,,,,,,John,and,Sam,took,their,guns,out,into,the,woods.,As,John,hunted,the,frightened,rabbit,escaped,through,the,dark,trees.,?,?,?,?,?,?,?
Spanish,320,73,m,Simple_EarlyClosure,m,Did John and Sam take their guns into the woods?,,,,,,,,116,153,135,76,537,212,514,1135,452,141,167,153,373,77,169,159,127,167,130,183,138,0,0,0,0,0,0,0,Aspect,4,,,,,,,,John,and,Sam,took,their,guns,out,into,the,woods.,As,John,hunted,the,frightened,rabbit,escaped,through,the,dark,trees.,?,?,?,?,?,?,?
Spanish,324,21,m,Simple_EarlyClosure,m,Did John and Sam take their guns into the woods?,,,,,,,,350,282,176,567,418,206,415,486,351,347,450,200,561,311,781,445,528,620,430,350,462,0,0,0,0,0,0,0,Aspect,4,,,,,,,,John,and,Sam,took,their,guns,out,into,the,woods.,As,John,hunted,the,frightened,rabbit,escaped,through,the,dark,trees.,?,?,?,?,?,?,?
Spanish,328,4,m,Simple_EarlyClosure,m,Did John and Sam take their guns into the woods?,,,,,,,,251,171,177,173,195,155,179,196,194,206,185,170,201,164,230,170,198,195,202,242,162,0,0,0,0,0,0,0,Aspect,4,,,,,,,,John,and,Sam,took,their,guns,out,into,the,woods.,As,John,hunted,the,frightened,rabbit,escaped,through,the,dark,trees.,?,?,?,?,?,?,?
Spanish,302,6,x,Prog_LateClosure,m,Did the couple want to leave?,,,,549,681,296,331,331,313,351,263,391,346,289,301,513,338,162,379,317,389,421,328,387,367,298,302,296,0,0,0,0,0,0,0,Aspect,7,,,,The,couple,sitting,next,to,me,at,the,restaurant,got,up,to,leave.,As,I,was,watching,the,drunk,man,he,tripped,over,my,chair.,?,?,?,?,?,?,?
Spanish,306,37,m,Prog_LateClosure,m,Did the couple want to leave?,,,,361,282,320,329,286,271,337,311,511,332,338,521,430,579,455,360,410,373,357,400,387,693,481,377,573,0,0,0,0,0,0,0,Aspect,7,,,,The,couple,sitting,next,to,me,at,the,restaurant,got,up,to,leave.,As,I,was,watching,the,drunk,man,he,tripped,over,my,chair.,?,?,?,?,?,?,?
Spanish,310,39,m,Prog_LateClosure,m,Did the couple want to leave?,,,,333,460,622,363,570,361,319,278,250,280,256,319,436,513,301,389,1144,660,1021,1172,423,612,481,598,710,0,0,0,0,0,0,0,Aspect,7,,,,The,couple,sitting,next,to,me,at,the,restaurant,got,up,to,leave.,As,I,was,watching,the,drunk,man,he,tripped,over,my,chair.,?,?,?,?,?,?,?
Spanish,318,36,m,Prog_LateClosure,m,Did the couple want to leave?,,,,280,310,301,291,271,316,289,306,250,259,273,286,327,328,262,306,320,307,290,320,277,404,328,290,636,0,0,0,0,0,0,0,Aspect,7,,,,The,couple,sitting,next,to,me,at,the,restaurant,got,up,to,leave.,As,I,was,watching,the,drunk,man,he,tripped,over,my,chair.,?,?,?,?,?,?,?
Spanish,322,45,m,Prog_LateClosure,m,Did the couple want to leave?,,,,285,222,164,224,215,160,254,218,184,210,174,220,416,268,211,164,266,158,167,229,227,173,280,199,205,0,0,0,0,0,0,0,Aspect,7,,,,The,couple,sitting,next,to,me,at,the,restaurant,got,up,to,leave.,As,I,was,watching,the,drunk,man,he,tripped,over,my,chair.,?,?,?,?,?,?,?
Spanish,326,62,m,Prog_LateClosure,m,Did the couple want to leave?,,,,302,389,269,273,325,225,445,194,171,1579,156,199,298,1019,195,266,552,232,605,342,371,290,645,340,375,0,0,0,0,0,0,0,Aspect,7,,,,The,couple,sitting,next,to,me,at,the,restaurant,got,up,to,leave.,As,I,was,watching,the,drunk,man,he,tripped,over,my,chair.,?,?,?,?,?,?,?
Spanish,304,71,m,Simple_LateClosure,m,Did the couple want to leave?,,,,,412,2041,493,319,307,284,285,310,434,276,308,307,290,318,279,346,271,332,346,456,350,326,304,557,0,0,0,0,0,0,0,Aspect,7,,,,,The,couple,sitting,next,to,me,at,the,restaurant,got,up,to,leave.,As,I,watched,the,drunk,man,he,tripped,over,my,chair.,?,?,?,?,?,?,?
Spanish,308,33,m,Simple_LateClosure,m,Did the couple want to leave?,,,,,277,187,225,243,201,232,215,227,190,215,214,224,234,222,1842,248,211,308,242,281,507,322,398,407,0,0,0,0,0,0,0,Aspect,7,,,,,The,couple,sitting,next,to,me,at,the,restaurant,got,up,to,leave.,As,I,watched,the,drunk,man,he,tripped,over,my,chair.,?,?,?,?,?,?,?
Spanish,312,62,m,Simple_LateClosure,m,Did the couple want to leave?,,,,,220,636,1130,345,268,369,353,246,366,340,308,366,565,395,241,407,410,655,364,391,408,333,366,320,0,0,0,0,0,0,0,Aspect,7,,,,,The,couple,sitting,next,to,me,at,the,restaurant,got,up,to,leave.,As,I,watched,the,drunk,man,he,tripped,over,my,chair.,?,?,?,?,?,?,?
Spanish,316,8,m,Simple_LateClosure,m,Did the couple want to leave?,,,,,284,209,301,429,288,411,292,396,532,382,294,358,308,436,247,275,320,293,339,254,293,367,308,332,0,0,0,0,0,0,0,Aspect,7,,,,,The,couple,sitting,next,to,me,at,the,restaurant,got,up,to,leave.,As,I,watched,the,drunk,man,he,tripped,over,my,chair.,?,?,?,?,?,?,?
Spanish,320,27,m,Simple_LateClosure,m,Did the couple want to leave?,,,,,243,162,162,205,174,720,223,204,453,311,250,289,503,273,144,321,325,931,424,492,186,404,230,514,0,0,0,0,0,0,0,Aspect,7,,,,,The,couple,sitting,next,to,me,at,the,restaurant,got,up,to,leave.,As,I,watched,the,drunk,man,he,tripped,over,my,chair.,?,?,?,?,?,?,?
Spanish,324,53,m,Simple_LateClosure,m,Did the couple want to leave?,,,,,872,420,671,425,359,500,596,630,497,376,328,566,821,498,453,404,393,357,436,441,624,569,491,495,0,0,0,0,0,0,0,Aspect,7,,,,,The,couple,sitting,next,to,me,at,the,restaurant,got,up,to,leave.,As,I,watched,the,drunk,man,he,tripped,over,my,chair.,?,?,?,?,?,?,?
Spanish,328,77,m,Simple_LateClosure,m,Did the couple want to leave?,,,,,155,150,171,184,181,158,171,170,148,154,167,137,150,153,154,152,159,168,150,162,193,203,156,176,0,0,0,0,0,0,0,Aspect,7,,,,,The,couple,sitting,next,to,me,at,the,restaurant,got,up,to,leave.,As,I,watched,the,drunk,man,he,tripped,over,my,chair.,?,?,?,?,?,?,?
Spanish,301,19,x,Prog_LateClosure,x,Was the flat tidy?,,,,,,,,,312,291,341,294,339,385,340,365,502,783,423,544,315,334,307,313,314,327,318,366,0,0,0,0,0,0,0,Aspect,6,,,,,,,,,The,flat,was,very,old,and,dirty.,Even,when,Joe,was,cleaning,the,small,kitchen,it,smelled,like,old,rubbish.,?,?,?,?,?,?,?
Spanish,305,57,x,Prog_LateClosure,x,Was the flat tidy?,,,,,,,,,518,341,484,563,875,577,710,594,564,634,530,482,420,424,650,612,507,347,362,386,0,0,0,0,0,0,0,Aspect,6,,,,,,,,,The,flat,was,very,old,and,dirty.,Even,when,Joe,was,cleaning,the,small,kitchen,it,smelled,like,old,rubbish.,?,?,?,?,?,?,?
Spanish,309,76,x,Prog_LateClosure,x,Was the flat tidy?,,,,,,,,,315,146,184,166,163,182,168,161,187,167,146,141,201,173,159,168,168,202,178,187,0,0,0,0,0,0,0,Aspect,6,,,,,,,,,The,flat,was,very,old,and,dirty.,Even,when,Joe,was,cleaning,the,small,kitchen,it,smelled,like,old,rubbish.,?,?,?,?,?,?,?
Spanish,321,52,m,Prog_LateClosure,x,Was the flat tidy?,,,,,,,,,1200,638,528,509,473,468,330,876,478,439,428,500,407,401,440,446,405,444,483,532,0,0,0,0,0,0,0,Aspect,6,,,,,,,,,The,flat,was,very,old,and,dirty.,Even,when,Joe,was,cleaning,the,small,kitchen,it,smelled,like,old,rubbish.,?,?,?,?,?,?,?
Spanish,304,51,m,Prog_LateClosure,m,Were there different kinds of vehicles at the company?,,,,,,,325,266,287,321,303,495,307,291,255,369,308,322,321,325,362,315,321,369,302,348,329,348,365,0,0,0,0,0,0,Aspect,9,,,,,,,There,were,many,different,kinds,of,vehicles,at,the,company.,When,George,was,driving,the,big,lorry,it,made,loud,and,strange,noises.,?,?,?,?,?,?
Spanish,308,50,x,Prog_LateClosure,m,Were there different kinds of vehicles at the company?,,,,,,,176,181,200,178,194,194,205,226,210,210,202,192,194,202,211,229,215,228,229,254,246,251,275,0,0,0,0,0,0,Aspect,9,,,,,,,There,were,many,different,kinds,of,vehicles,at,the,company.,When,George,was,driving,the,big,lorry,it,made,loud,and,strange,noises.,?,?,?,?,?,?
Spanish,312,16,m,Prog_LateClosure,m,Were there different kinds of vehicles at the company?,,,,,,,289,144,154,584,273,322,337,315,280,159,503,203,206,307,313,342,329,315,329,295,341,266,458,0,0,0,0,0,0,Aspect,9,,,,,,,There,were,many,different,kinds,of,vehicles,at,the,company.,When,George,was,driving,the,big,lorry,it,made,loud,and,strange,noises.,?,?,?,?,?,?
Spanish,316,56,m,Prog_LateClosure,m,Were there different kinds of vehicles at the company?,,,,,,,250,213,230,229,186,241,212,239,211,157,230,229,239,254,197,202,245,270,234,361,223,261,247,0,0,0,0,0,0,Aspect,9,,,,,,,There,were,many,different,kinds,of,vehicles,at,the,company.,When,George,was,driving,the,big,lorry,it,made,loud,and,strange,noises.,?,?,?,?,?,?
Spanish,320,18,m,Prog_LateClosure,m,Were there different kinds of vehicles at the company?,,,,,,,285,359,151,141,148,315,322,146,150,113,138,200,149,163,173,326,247,261,268,286,244,274,275,0,0,0,0,0,0,Aspect,9,,,,,,,There,were,many,different,kinds,of,vehicles,at,the,company.,When,George,was,driving,the,big,lorry,it,made,loud,and,strange,noises.,?,?,?,?,?,?
Spanish,324,32,m,Prog_LateClosure,m,Were there different kinds of vehicles at the company?,,,,,,,361,431,559,706,549,341,657,444,239,424,855,263,342,326,663,258,349,449,423,409,559,462,283,0,0,0,0,0,0,Aspect,9,,,,,,,There,were,many,different,kinds,of,vehicles,at,the,company.,When,George,was,driving,the,big,lorry,it,made,loud,and,strange,noises.,?,?,?,?,?,?
Spanish,328,60,m,Prog_LateClosure,m,Were there different kinds of vehicles at the company?,,,,,,,204,156,215,226,184,148,201,223,194,144,170,202,153,173,182,183,168,153,184,174,189,189,198,0,0,0,0,0,0,Aspect,9,,,,,,,There,were,many,different,kinds,of,vehicles,at,the,company.,When,George,was,driving,the,big,lorry,it,made,loud,and,strange,noises.,?,?,?,?,?,?
Spanish,302,42,m,Simple_LateClosure,x,Was the bar full?,,,,,,,,,131,183,173,154,122,119,434,144,488,114,153,153,126,340,147,374,342,275,370,285,311,0,0,0,0,0,0,Aspect,1,,,,,,,,,It,was,late,and,the,bar,was,full.,As,the,men,drank,the,strong,beer,it,was,spilled,on,the,floor.,?,?,?,?,?,?
Spanish,306,72,m,Simple_LateClosure,x,Was the bar full?,,,,,,,,,327,356,314,474,450,390,380,303,330,296,554,304,367,350,414,335,393,983,425,488,587,0,0,0,0,0,0,Aspect,1,,,,,,,,,It,was,late,and,the,bar,was,full.,As,the,men,drank,the,strong,beer,it,was,spilled,on,the,floor.,?,?,?,?,?,?
Spanish,310,81,x,Simple_LateClosure,x,Was the bar full?,,,,,,,,,338,396,337,453,346,404,396,679,336,363,386,543,311,377,354,394,366,772,343,525,727,0,0,0,0,0,0,Aspect,1,,,,,,,,,It,was,late,and,the,bar,was,full.,As,the,men,drank,the,strong,beer,it,was,spilled,on,the,floor.,?,?,?,?,?,?
Spanish,318,38,m,Simple_LateClosure,x,Was the bar full?,,,,,,,,,386,535,385,387,316,306,299,393,290,331,563,300,344,342,359,382,298,634,288,283,333,0,0,0,0,0,0,Aspect,1,,,,,,,,,It,was,late,and,the,bar,was,full.,As,the,men,drank,the,strong,beer,it,was,spilled,on,the,floor.,?,?,?,?,?,?
Spanish,322,39,m,Simple_LateClosure,x,Was the bar full?,,,,,,,,,219,185,216,325,260,198,207,205,408,214,234,162,219,211,247,208,237,183,373,201,319,0,0,0,0,0,0,Aspect,1,,,,,,,,,It,was,late,and,the,bar,was,full.,As,the,men,drank,the,strong,beer,it,was,spilled,on,the,floor.,?,?,?,?,?,?
Spanish,326,59,m,Simple_LateClosure,x,Was the bar full?,,,,,,,,,280,748,295,262,368,269,238,1580,195,179,377,305,206,225,586,308,351,585,308,351,1153,0,0,0,0,0,0,Aspect,1,,,,,,,,,It,was,late,and,the,bar,was,full.,As,the,men,drank,the,strong,beer,it,was,spilled,on,the,floor.,?,?,?,?,?,?
Spanish,301,61,m,Prog_LateClosure,m,Did the opera company have three different conductors?,,,,,,,,,240,254,254,287,263,258,254,256,327,230,237,240,319,266,302,282,250,275,244,244,270,0,0,0,0,0,0,Aspect,10,,,,,,,,,The,opera,company,had,three,different,conductors.,When,Mr.,Osaka,was,conducting,the,symphony,orchestra,it,played,better,than,anyone,else.,?,?,?,?,?,?
Spanish,305,84,x,Prog_LateClosure,m,Did the opera company have three different conductors?,,,,,,,,,399,403,464,532,361,486,698,568,352,434,486,337,332,384,674,405,357,371,356,344,382,0,0,0,0,0,0,Aspect,10,,,,,,,,,The,opera,company,had,three,different,conductors.,When,Mr.,Osaka,was,conducting,the,symphony,orchestra,it,played,better,than,anyone,else.,?,?,?,?,?,?
Spanish,309,82,m,Prog_LateClosure,m,Did the opera company have three different conductors?,,,,,,,,,295,150,131,163,167,157,158,143,170,157,164,154,180,160,181,173,143,179,138,171,142,0,0,0,0,0,0,Aspect,10,,,,,,,,,The,opera,company,had,three,different,conductors.,When,Mr.,Osaka,was,conducting,the,symphony,orchestra,it,played,better,than,anyone,else.,?,?,?,?,?,?
Spanish,321,73,m,Prog_LateClosure,m,Did the opera company have three different conductors?,,,,,,,,,286,481,605,303,3308,511,558,1226,384,527,470,611,413,494,633,446,628,543,416,512,537,0,0,0,0,0,0,Aspect,10,,,,,,,,,The,opera,company,had,three,different,conductors.,When,Mr.,Osaka,was,conducting,the,symphony,orchestra,it,played,better,than,anyone,else.,?,?,?,?,?,?
Spanish,303,20,x,Simple_LateClosure,x,Did the ice-cream drop down the boy’s pants?,,,,,,,,248,202,240,382,404,370,351,371,673,621,304,327,315,370,739,764,490,426,313,426,373,390,0,0,0,0,0,0,Aspect,14,,,,,,,,In,the,"park,",two,children,were,eating,some,ice-cream.,As,the,boy,ate,the,chocolate,ice-cream,it,dropped,down,his,clean,shirt.,?,?,?,?,?,?
Spanish,307,24,x,Simple_LateClosure,x,Did the ice-cream drop down the boy’s pants?,,,,,,,,314,359,315,348,436,351,338,441,600,370,400,475,303,417,477,467,369,441,454,379,371,491,0,0,0,0,0,0,Aspect,14,,,,,,,,In,the,"park,",two,children,were,eating,some,ice-cream.,As,the,boy,ate,the,chocolate,ice-cream,it,dropped,down,his,clean,shirt.,?,?,?,?,?,?
Spanish,315,44,x,Simple_LateClosure,x,Did the ice-cream drop down the boy’s pants?,,,,,,,,340,436,282,414,537,329,324,273,324,391,295,272,331,327,479,484,491,375,408,372,361,675,0,0,0,0,0,0,Aspect,14,,,,,,,,In,the,"park,",two,children,were,eating,some,ice-cream.,As,the,boy,ate,the,chocolate,ice-cream,it,dropped,down,his,clean,shirt.,?,?,?,?,?,?
Spanish,319,66,x,Simple_LateClosure,x,Did the ice-cream drop down the boy’s pants?,,,,,,,,315,206,281,320,376,254,708,296,611,441,222,436,481,235,375,584,325,373,290,454,343,311,0,0,0,0,0,0,Aspect,14,,,,,,,,In,the,"park,",two,children,were,eating,some,ice-cream.,As,the,boy,ate,the,chocolate,ice-cream,it,dropped,down,his,clean,shirt.,?,?,?,?,?,?
Spanish,323,34,x,Simple_LateClosure,x,Did the ice-cream drop down the boy’s pants?,,,,,,,,327,256,264,284,281,428,475,350,310,483,339,299,383,443,416,368,366,390,377,333,311,327,0,0,0,0,0,0,Aspect,14,,,,,,,,In,the,"park,",two,children,were,eating,some,ice-cream.,As,the,boy,ate,the,chocolate,ice-cream,it,dropped,down,his,clean,shirt.,?,?,?,?,?,?
Spanish,327,70,x,Simple_LateClosure,x,Did the ice-cream drop down the boy’s pants?,,,,,,,,268,355,266,627,445,431,550,613,887,377,345,276,666,425,568,541,1035,355,455,393,366,616,0,0,0,0,0,0,Aspect,14,,,,,,,,In,the,"park,",two,children,were,eating,some,ice-cream.,As,the,boy,ate,the,chocolate,ice-cream,it,dropped,down,his,clean,shirt.,?,?,?,?,?,?
Spanish,303,3,m,Prog_LateClosure,m,Did the horse jump a fence?,,,,,,,,,564,330,556,505,313,468,318,753,488,363,428,437,383,255,426,556,722,499,339,368,527,672,0,0,0,0,0,Aspect,12,,,,,,,,,Jenny,and,Sam,went,out,for,a,ride.,While,Jenny,was,riding,the,young,horse,it,decided,to,jump,a,high,fence.,?,?,?,?,?
Spanish,307,36,m,Prog_LateClosure,m,Did the horse jump a fence?,,,,,,,,,492,434,278,344,417,432,306,331,348,392,348,377,416,330,504,537,649,329,933,329,475,570,0,0,0,0,0,Aspect,12,,,,,,,,,Jenny,and,Sam,went,out,for,a,ride.,While,Jenny,was,riding,the,young,horse,it,decided,to,jump,a,high,fence.,?,?,?,?,?
Spanish,315,78,m,Prog_LateClosure,m,Did the horse jump a fence?,,,,,,,,,256,292,629,385,260,276,278,292,239,382,256,330,243,300,288,373,361,457,464,418,469,588,0,0,0,0,0,Aspect,12,,,,,,,,,Jenny,and,Sam,went,out,for,a,ride.,While,Jenny,was,riding,the,young,horse,it,decided,to,jump,a,high,fence.,?,?,?,?,?
Spanish,319,34,m,Prog_LateClosure,m,Did the horse jump a fence?,,,,,,,,,286,360,147,453,361,387,270,703,416,223,392,313,352,342,423,433,1303,357,408,387,423,392,0,0,0,0,0,Aspect,12,,,,,,,,,Jenny,and,Sam,went,out,for,a,ride.,While,Jenny,was,riding,the,young,horse,it,decided,to,jump,a,high,fence.,?,?,?,?,?
Spanish,323,19,m,Prog_LateClosure,m,Did the horse jump a fence?,,,,,,,,,356,317,365,348,443,410,368,320,484,351,457,673,321,413,390,418,377,354,522,474,612,518,0,0,0,0,0,Aspect,12,,,,,,,,,Jenny,and,Sam,went,out,for,a,ride.,While,Jenny,was,riding,the,young,horse,it,decided,to,jump,a,high,fence.,?,?,?,?,?
Spanish,327,63,m,Prog_LateClosure,m,Did the horse jump a fence?,,,,,,,,,555,455,562,554,532,530,410,1377,368,571,614,596,508,483,595,396,357,335,375,358,538,413,0,0,0,0,0,Aspect,12,,,,,,,,,Jenny,and,Sam,went,out,for,a,ride.,While,Jenny,was,riding,the,young,horse,it,decided,to,jump,a,high,fence.,?,?,?,?,?
Spanish,303,29,m,Prog_LateClosure,x,Were there three Italian chefs working at the restaurant?,,,,,,,,290,254,299,328,261,407,286,285,227,322,276,257,329,314,313,306,369,282,279,302,349,871,0,0,0,0,0,0,Aspect,8,,,,,,,,There,were,two,Italian,chefs,working,in,the,restaurant.,Because,Mario,was,cooking,the,fresh,pasta,it,was,made,to,real,perfection.,?,?,?,?,?,?
Spanish,307,30,x,Prog_LateClosure,x,Were there three Italian chefs working at the restaurant?,,,,,,,,320,356,328,313,338,320,321,322,316,350,347,363,419,282,321,296,359,323,316,360,341,494,0,0,0,0,0,0,Aspect,8,,,,,,,,There,were,two,Italian,chefs,working,in,the,restaurant.,Because,Mario,was,cooking,the,fresh,pasta,it,was,made,to,real,perfection.,?,?,?,?,?,?
Spanish,315,14,x,Prog_LateClosure,x,Were there three Italian chefs working at the restaurant?,,,,,,,,1310,960,517,593,547,541,487,389,611,485,457,466,611,616,395,459,391,392,570,669,573,579,0,0,0,0,0,0,Aspect,8,,,,,,,,There,were,two,Italian,chefs,working,in,the,restaurant.,Because,Mario,was,cooking,the,fresh,pasta,it,was,made,to,real,perfection.,?,?,?,?,?,?
Spanish,319,61,x,Prog_LateClosure,x,Were there three Italian chefs working at the restaurant?,,,,,,,,288,277,294,538,154,933,385,375,1344,297,242,586,270,325,487,357,481,541,332,348,474,455,0,0,0,0,0,0,Aspect,8,,,,,,,,There,were,two,Italian,chefs,working,in,the,restaurant.,Because,Mario,was,cooking,the,fresh,pasta,it,was,made,to,real,perfection.,?,?,?,?,?,?
Spanish,323,32,x,Prog_LateClosure,x,Were there three Italian chefs working at the restaurant?,,,,,,,,234,299,257,275,285,284,370,258,557,344,222,268,491,381,349,335,293,380,295,363,388,867,0,0,0,0,0,0,Aspect,8,,,,,,,,There,were,two,Italian,chefs,working,in,the,restaurant.,Because,Mario,was,cooking,the,fresh,pasta,it,was,made,to,real,perfection.,?,?,?,?,?,?
Spanish,327,54,x,Prog_LateClosure,x,Were there three Italian chefs working at the restaurant?,,,,,,,,383,382,375,537,428,573,545,298,491,508,389,374,458,322,476,340,331,375,400,370,430,826,0,0,0,0,0,0,Aspect,8,,,,,,,,There,were,two,Italian,chefs,working,in,the,restaurant.,Because,Mario,was,cooking,the,fresh,pasta,it,was,made,to,real,perfection.,?,?,?,?,?,?
Spanish,303,82,m,Prog_LateClosure,m,Did John and Sam take their guns into the woods?,,,,,,,297,378,233,276,583,273,863,248,302,427,689,316,261,544,493,532,282,400,283,399,342,318,398,0,0,0,0,0,0,Aspect,4,,,,,,,John,and,Sam,took,their,guns,out,into,the,woods.,As,John,was,hunting,the,frightened,rabbit,it,escaped,through,the,dark,trees.,?,?,?,?,?,?
Spanish,307,17,m,Prog_LateClosure,m,Did John and Sam take their guns into the woods?,,,,,,,379,353,300,318,307,336,295,339,525,409,403,449,492,485,337,408,577,423,458,448,317,459,348,0,0,0,0,0,0,Aspect,4,,,,,,,John,and,Sam,took,their,guns,out,into,the,woods.,As,John,was,hunting,the,frightened,rabbit,it,escaped,through,the,dark,trees.,?,?,?,?,?,?
Spanish,315,67,m,Prog_LateClosure,m,Did John and Sam take their guns into the woods?,,,,,,,270,230,453,612,296,350,483,502,315,458,701,156,287,644,359,272,542,465,970,284,321,224,603,0,0,0,0,0,0,Aspect,4,,,,,,,John,and,Sam,took,their,guns,out,into,the,woods.,As,John,was,hunting,the,frightened,rabbit,it,escaped,through,the,dark,trees.,?,?,?,?,?,?
Spanish,319,11,m,Prog_LateClosure,m,Did John and Sam take their guns into the woods?,,,,,,,556,407,393,347,414,356,379,423,574,1100,353,570,358,557,309,961,568,387,471,461,362,539,592,0,0,0,0,0,0,Aspect,4,,,,,,,John,and,Sam,took,their,guns,out,into,the,woods.,As,John,was,hunting,the,frightened,rabbit,it,escaped,through,the,dark,trees.,?,?,?,?,?,?
Spanish,323,59,x,Prog_LateClosure,m,Did John and Sam take their guns into the woods?,,,,,,,210,230,259,326,290,306,607,305,324,401,352,259,278,531,575,348,360,363,458,364,396,523,635,0,0,0,0,0,0,Aspect,4,,,,,,,John,and,Sam,took,their,guns,out,into,the,woods.,As,John,was,hunting,the,frightened,rabbit,it,escaped,through,the,dark,trees.,?,?,?,?,?,?
Spanish,327,45,m,Prog_LateClosure,m,Did John and Sam take their guns into the woods?,,,,,,,358,425,404,404,353,371,496,483,516,609,392,485,378,682,394,938,496,575,558,573,353,341,343,0,0,0,0,0,0,Aspect,4,,,,,,,John,and,Sam,took,their,guns,out,into,the,woods.,As,John,was,hunting,the,frightened,rabbit,it,escaped,through,the,dark,trees.,?,?,?,?,?,?
Spanish,304,50,x,Simple_LateClosure,x,Did the tree stay steady?,,337,267,256,294,268,247,258,270,228,307,236,277,367,271,554,311,303,274,275,279,296,365,286,296,317,314,470,0,0,0,0,0,0,0,Aspect,15,,In,the,"garden,",a,boy,and,a,girl,wanted,to,go,up,into,the,tree-house.,While,the,girl,climbed,the,tall,tree,it,started,to,shake,dangerously.,?,?,?,?,?,?,?
Spanish,308,3,x,Simple_LateClosure,x,Did the tree stay steady?,,433,378,384,382,341,416,392,291,268,1676,363,409,390,363,862,626,395,345,462,366,1244,532,813,503,406,432,1646,0,0,0,0,0,0,0,Aspect,15,,In,the,"garden,",a,boy,and,a,girl,wanted,to,go,up,into,the,tree-house.,While,the,girl,climbed,the,tall,tree,it,started,to,shake,dangerously.,?,?,?,?,?,?,?
Spanish,312,12,m,Simple_LateClosure,x,Did the tree stay steady?,,301,270,353,355,285,299,317,272,373,298,382,311,578,340,1462,517,577,393,519,438,433,674,409,468,367,602,527,0,0,0,0,0,0,0,Aspect,15,,In,the,"garden,",a,boy,and,a,girl,wanted,to,go,up,into,the,tree-house.,While,the,girl,climbed,the,tall,tree,it,started,to,shake,dangerously.,?,?,?,?,?,?,?
Spanish,316,51,x,Simple_LateClosure,x,Did the tree stay steady?,,157,468,302,461,236,259,225,265,249,230,182,186,268,249,243,224,291,282,292,234,309,231,219,259,212,225,294,0,0,0,0,0,0,0,Aspect,15,,In,the,"garden,",a,boy,and,a,girl,wanted,to,go,up,into,the,tree-house.,While,the,girl,climbed,the,tall,tree,it,started,to,shake,dangerously.,?,?,?,?,?,?,?
Spanish,320,53,x,Simple_LateClosure,x,Did the tree stay steady?,,142,137,436,69,73,203,117,98,47,86,291,90,156,240,26,76,131,40,91,401,80,58,101,137,177,122,102,0,0,0,0,0,0,0,Aspect,15,,In,the,"garden,",a,boy,and,a,girl,wanted,to,go,up,into,the,tree-house.,While,the,girl,climbed,the,tall,tree,it,started,to,shake,dangerously.,?,?,?,?,?,?,?
Spanish,324,54,x,Simple_LateClosure,x,Did the tree stay steady?,,387,517,496,1203,354,707,421,387,447,379,472,479,422,362,496,650,456,370,592,449,361,597,389,536,563,527,644,0,0,0,0,0,0,0,Aspect,15,,In,the,"garden,",a,boy,and,a,girl,wanted,to,go,up,into,the,tree-house.,While,the,girl,climbed,the,tall,tree,it,started,to,shake,dangerously.,?,?,?,?,?,?,?
Spanish,328,10,x,Simple_LateClosure,x,Did the tree stay steady?,,155,176,182,167,166,161,137,170,145,168,148,174,169,144,172,165,172,174,205,175,171,160,159,198,150,172,174,0,0,0,0,0,0,0,Aspect,15,,In,the,"garden,",a,boy,and,a,girl,wanted,to,go,up,into,the,tree-house.,While,the,girl,climbed,the,tall,tree,it,started,to,shake,dangerously.,?,?,?,?,?,?,?
Spanish,303,49,m,Simple_LateClosure,m,Was the eviction notice canceled?,,,,,,,,,,,285,219,347,864,427,700,996,516,228,224,249,228,269,332,292,254,335,267,0,0,0,0,0,0,0,Aspect,18,,,,,,,,,,,The,lawyers’,office,was,rather,busy.,As,the,secretary,typed,the,eviction,notice,it,was,canceled,very,suddenly.,?,?,?,?,?,?,?
Spanish,307,3,m,Simple_LateClosure,m,Was the eviction notice canceled?,,,,,,,,,,,411,526,322,443,406,610,335,337,304,378,387,471,856,430,418,475,653,493,0,0,0,0,0,0,0,Aspect,18,,,,,,,,,,,The,lawyers’,office,was,rather,busy.,As,the,secretary,typed,the,eviction,notice,it,was,canceled,very,suddenly.,?,?,?,?,?,?,?
Spanish,315,18,m,Simple_LateClosure,m,Was the eviction notice canceled?,,,,,,,,,,,295,270,445,317,829,391,891,415,520,502,590,604,448,484,364,799,491,791,0,0,0,0,0,0,0,Aspect,18,,,,,,,,,,,The,lawyers’,office,was,rather,busy.,As,the,secretary,typed,the,eviction,notice,it,was,canceled,very,suddenly.,?,?,?,?,?,?,?
Spanish,319,77,m,Simple_LateClosure,m,Was the eviction notice canceled?,,,,,,,,,,,553,410,249,266,319,323,415,202,494,228,980,520,394,316,377,694,428,621,0,0,0,0,0,0,0,Aspect,18,,,,,,,,,,,The,lawyers’,office,was,rather,busy.,As,the,secretary,typed,the,eviction,notice,it,was,canceled,very,suddenly.,?,?,?,?,?,?,?
Spanish,323,84,m,Simple_LateClosure,m,Was the eviction notice canceled?,,,,,,,,,,,432,345,655,518,567,529,424,440,492,390,712,1336,1476,376,681,544,739,789,0,0,0,0,0,0,0,Aspect,18,,,,,,,,,,,The,lawyers’,office,was,rather,busy.,As,the,secretary,typed,the,eviction,notice,it,was,canceled,very,suddenly.,?,?,?,?,?,?,?
Spanish,327,84,m,Simple_LateClosure,m,Was the eviction notice canceled?,,,,,,,,,,,350,349,393,357,630,333,467,335,487,303,431,667,606,431,393,520,445,469,0,0,0,0,0,0,0,Aspect,18,,,,,,,,,,,The,lawyers’,office,was,rather,busy.,As,the,secretary,typed,the,eviction,notice,it,was,canceled,very,suddenly.,?,?,?,?,?,?,?
Spanish,303,33,m,Prog_LateClosure,x,Did Mrs. Brown park well?,,,,,,,286,273,258,262,253,276,269,303,307,433,294,293,316,557,309,293,425,592,301,304,275,328,451,0,0,0,0,0,0,Aspect,20,,,,,,,The,driving,instructor,almost,gave,up,on,Mrs.,Brown.,When,the,woman,was,parking,the,new,car,it,was,always,at,an,angle.,?,?,?,?,?,?
Spanish,307,38,x,Prog_LateClosure,x,Did Mrs. Brown park well?,,,,,,,573,388,297,384,310,813,315,355,337,323,317,345,278,406,297,319,364,345,353,371,296,340,694,0,0,0,0,0,0,Aspect,20,,,,,,,The,driving,instructor,almost,gave,up,on,Mrs.,Brown.,When,the,woman,was,parking,the,new,car,it,was,always,at,an,angle.,?,?,?,?,?,?
Spanish,315,23,m,Prog_LateClosure,x,Did Mrs. Brown park well?,,,,,,,381,322,620,333,1023,824,367,694,512,611,305,352,629,701,246,278,291,404,1435,263,743,291,727,0,0,0,0,0,0,Aspect,20,,,,,,,The,driving,instructor,almost,gave,up,on,Mrs.,Brown.,When,the,woman,was,parking,the,new,car,it,was,always,at,an,angle.,?,?,?,?,?,?
Spanish,319,22,m,Prog_LateClosure,x,Did Mrs. Brown park well?,,,,,,,472,410,584,631,418,331,576,411,619,625,491,531,642,1501,338,349,384,329,448,436,376,390,504,0,0,0,0,0,0,Aspect,20,,,,,,,The,driving,instructor,almost,gave,up,on,Mrs.,Brown.,When,the,woman,was,parking,the,new,car,it,was,always,at,an,angle.,?,?,?,?,?,?
Spanish,323,24,x,Prog_LateClosure,x,Did Mrs. Brown park well?,,,,,,,303,297,283,304,670,321,365,376,389,339,352,323,336,333,315,321,313,431,386,335,326,334,789,0,0,0,0,0,0,Aspect,20,,,,,,,The,driving,instructor,almost,gave,up,on,Mrs.,Brown.,When,the,woman,was,parking,the,new,car,it,was,always,at,an,angle.,?,?,?,?,?,?
Spanish,327,4,x,Prog_LateClosure,x,Did Mrs. Brown park well?,,,,,,,594,415,608,728,1092,512,548,834,570,449,606,435,667,939,524,583,552,520,464,613,558,1056,1012,0,0,0,0,0,0,Aspect,20,,,,,,,The,driving,instructor,almost,gave,up,on,Mrs.,Brown.,When,the,woman,was,parking,the,new,car,it,was,always,at,an,angle.,?,?,?,?,?,?
Spanish,303,76,x,Simple_LateClosure,x,Was the flat tidy?,,,,,,,,,,289,249,302,267,284,280,270,279,281,255,274,379,245,278,330,319,309,291,442,0,0,0,0,0,0,0,Aspect,6,,,,,,,,,,The,flat,was,very,old,and,dirty.,Even,when,Joe,cleaned,the,small,kitchen,it,smelled,like,old,rubbish.,?,?,?,?,?,?,?
Spanish,307,68,x,Simple_LateClosure,x,Was the flat tidy?,,,,,,,,,,463,474,305,477,481,357,359,334,455,309,366,320,317,357,347,349,364,354,338,0,0,0,0,0,0,0,Aspect,6,,,,,,,,,,The,flat,was,very,old,and,dirty.,Even,when,Joe,cleaned,the,small,kitchen,it,smelled,like,old,rubbish.,?,?,?,?,?,?,?
Spanish,315,32,x,Simple_LateClosure,x,Was the flat tidy?,,,,,,,,,,399,285,327,457,285,536,341,740,350,466,328,734,376,606,372,991,894,463,1015,0,0,0,0,0,0,0,Aspect,6,,,,,,,,,,The,flat,was,very,old,and,dirty.,Even,when,Joe,cleaned,the,small,kitchen,it,smelled,like,old,rubbish.,?,?,?,?,?,?,?
Spanish,319,5,x,Simple_LateClosure,x,Was the flat tidy?,,,,,,,,,,458,506,401,333,372,372,748,355,490,620,444,368,410,531,1079,909,431,335,584,0,0,0,0,0,0,0,Aspect,6,,,,,,,,,,The,flat,was,very,old,and,dirty.,Even,when,Joe,cleaned,the,small,kitchen,it,smelled,like,old,rubbish.,?,?,?,?,?,?,?
Spanish,323,45,x,Simple_LateClosure,x,Was the flat tidy?,,,,,,,,,,386,271,365,386,305,301,347,407,362,662,405,309,345,379,577,414,520,335,720,0,0,0,0,0,0,0,Aspect,6,,,,,,,,,,The,flat,was,very,old,and,dirty.,Even,when,Joe,cleaned,the,small,kitchen,it,smelled,like,old,rubbish.,?,?,?,?,?,?,?
Spanish,327,42,x,Simple_LateClosure,x,Was the flat tidy?,,,,,,,,,,779,310,458,361,355,448,755,391,794,482,557,443,781,500,346,624,396,402,566,0,0,0,0,0,0,0,Aspect,6,,,,,,,,,,The,flat,was,very,old,and,dirty.,Even,when,Joe,cleaned,the,small,kitchen,it,smelled,like,old,rubbish.,?,?,?,?,?,?,?
Spanish,301,8,x,Simple_LateClosure,x,Did Mrs. Brown park well?,,,,,,,,242,269,896,312,276,319,272,321,345,321,347,338,354,354,298,315,310,332,493,338,348,451,0,0,0,0,0,0,Aspect,20,,,,,,,,The,driving,instructor,almost,gave,up,on,Mrs.,Brown.,When,the,woman,parked,the,new,car,it,was,always,at,an,angle.,?,?,?,?,?,?
Spanish,305,9,x,Simple_LateClosure,x,Did Mrs. Brown park well?,,,,,,,,512,720,804,540,727,697,599,711,646,557,490,439,643,451,421,722,656,589,587,595,606,788,0,0,0,0,0,0,Aspect,20,,,,,,,,The,driving,instructor,almost,gave,up,on,Mrs.,Brown.,When,the,woman,parked,the,new,car,it,was,always,at,an,angle.,?,?,?,?,?,?
Spanish,309,11,x,Simple_LateClosure,x,Did Mrs. Brown park well?,,,,,,,,339,434,291,258,265,305,273,284,285,285,280,265,278,269,280,264,307,293,293,258,255,274,0,0,0,0,0,0,Aspect,20,,,,,,,,The,driving,instructor,almost,gave,up,on,Mrs.,Brown.,When,the,woman,parked,the,new,car,it,was,always,at,an,angle.,?,?,?,?,?,?
Spanish,321,66,x,Simple_LateClosure,x,Did Mrs. Brown park well?,,,,,,,,479,964,989,617,711,484,455,672,457,476,539,415,493,460,417,446,462,443,450,418,389,1639,0,0,0,0,0,0,Aspect,20,,,,,,,,The,driving,instructor,almost,gave,up,on,Mrs.,Brown.,When,the,woman,parked,the,new,car,it,was,always,at,an,angle.,?,?,?,?,?,?
Spanish,301,73,m,Simple_LateClosure,m,Did John and Sam take their guns into the woods?,,,,,,,,226,385,282,306,253,217,224,248,231,255,329,243,240,282,233,300,345,326,241,212,387,280,0,0,0,0,0,0,Aspect,4,,,,,,,,John,and,Sam,took,their,guns,out,into,the,woods.,As,John,hunted,the,frightened,rabbit,it,escaped,through,the,dark,trees.,?,?,?,?,?,?
Spanish,305,42,m,Simple_LateClosure,m,Did John and Sam take their guns into the woods?,,,,,,,,571,390,420,343,420,488,495,496,553,1083,535,503,609,517,725,747,496,720,581,597,584,539,0,0,0,0,0,0,Aspect,4,,,,,,,,John,and,Sam,took,their,guns,out,into,the,woods.,As,John,hunted,the,frightened,rabbit,it,escaped,through,the,dark,trees.,?,?,?,?,?,?
Spanish,309,59,m,Simple_LateClosure,m,Did John and Sam take their guns into the woods?,,,,,,,,360,161,176,266,215,120,278,158,172,236,300,188,307,327,214,326,451,313,299,213,198,251,0,0,0,0,0,0,Aspect,4,,,,,,,,John,and,Sam,took,their,guns,out,into,the,woods.,As,John,hunted,the,frightened,rabbit,it,escaped,through,the,dark,trees.,?,?,?,?,?,?
Spanish,321,69,m,Simple_LateClosure,m,Did John and Sam take their guns into the woods?,,,,,,,,351,331,378,365,332,422,439,426,418,1032,712,493,354,474,604,585,482,508,981,490,470,1094,0,0,0,0,0,0,Aspect,4,,,,,,,,John,and,Sam,took,their,guns,out,into,the,woods.,As,John,hunted,the,frightened,rabbit,it,escaped,through,the,dark,trees.,?,?,?,?,?,?
Spanish,301,14,m,Simple_LateClosure,m,Did the horse jump a fence?,,,,,,,,,,306,328,316,260,331,243,337,287,318,317,352,374,308,363,711,324,354,345,350,335,363,0,0,0,0,0,Aspect,12,,,,,,,,,,Jenny,and,Sam,went,out,for,a,ride.,While,Jenny,rode,the,young,horse,it,decided,to,jump,a,high,fence.,?,?,?,?,?
Spanish,305,72,m,Simple_LateClosure,m,Did the horse jump a fence?,,,,,,,,,,394,404,459,409,459,493,382,387,398,353,349,395,311,347,328,320,374,374,421,382,615,0,0,0,0,0,Aspect,12,,,,,,,,,,Jenny,and,Sam,went,out,for,a,ride.,While,Jenny,rode,the,young,horse,it,decided,to,jump,a,high,fence.,?,?,?,?,?
Spanish,309,34,m,Simple_LateClosure,m,Did the horse jump a fence?,,,,,,,,,,361,176,180,172,145,196,169,166,173,191,176,179,165,176,201,223,328,189,176,174,212,0,0,0,0,0,Aspect,12,,,,,,,,,,Jenny,and,Sam,went,out,for,a,ride.,While,Jenny,rode,the,young,horse,it,decided,to,jump,a,high,fence.,?,?,?,?,?
Spanish,321,53,m,Simple_LateClosure,m,Did the horse jump a fence?,,,,,,,,,,1231,359,355,560,475,531,401,397,874,501,467,328,386,396,485,433,364,476,404,373,468,0,0,0,0,0,Aspect,12,,,,,,,,,,Jenny,and,Sam,went,out,for,a,ride.,While,Jenny,rode,the,young,horse,it,decided,to,jump,a,high,fence.,?,?,?,?,?
Spanish,301,16,m,Prog_LateClosure,m,Was the eviction notice canceled?,,,,,,,,,,352,240,532,363,334,347,405,693,325,347,363,482,267,478,326,302,332,328,339,0,0,0,0,0,0,0,Aspect,18,,,,,,,,,,The,lawyers’,office,was,rather,busy.,As,the,secretary,was,typing,the,eviction,notice,it,was,canceled,very,suddenly.,?,?,?,?,?,?,?
Spanish,305,14,m,Prog_LateClosure,m,Was the eviction notice canceled?,,,,,,,,,,620,914,1025,1074,849,1105,890,756,737,677,681,696,630,763,601,543,577,407,670,0,0,0,0,0,0,0,Aspect,18,,,,,,,,,,The,lawyers’,office,was,rather,busy.,As,the,secretary,was,typing,the,eviction,notice,it,was,canceled,very,suddenly.,?,?,?,?,?,?,?
Spanish,309,67,m,Prog_LateClosure,m,Was the eviction notice canceled?,,,,,,,,,,296,321,244,158,179,176,180,187,197,171,181,191,194,211,344,223,200,187,176,0,0,0,0,0,0,0,Aspect,18,,,,,,,,,,The,lawyers’,office,was,rather,busy.,As,the,secretary,was,typing,the,eviction,notice,it,was,canceled,very,suddenly.,?,?,?,?,?,?,?
Spanish,321,84,m,Prog_LateClosure,m,Was the eviction notice canceled?,,,,,,,,,,1591,840,565,506,428,537,1214,500,615,503,544,478,1062,564,506,414,653,434,790,0,0,0,0,0,0,0,Aspect,18,,,,,,,,,,The,lawyers’,office,was,rather,busy.,As,the,secretary,was,typing,the,eviction,notice,it,was,canceled,very,suddenly.,?,?,?,?,?,?,?
Spanish,303,26,m,Prog_LateClosure,m,Did the furniture look expensive?,,,,,,,,253,234,254,317,308,289,413,436,730,529,690,346,238,333,445,307,286,302,261,381,568,0,0,0,0,0,0,0,Aspect,16,,,,,,,,Sarah,and,Jane,owned,a,shop,selling,old,furniture.,When,Sarah,was,polishing,the,cheap,furniture,it,looked,new,and,expensive.,?,?,?,?,?,?,?
Spanish,307,41,m,Prog_LateClosure,m,Did the furniture look expensive?,,,,,,,,504,348,360,469,310,372,361,347,405,338,354,372,341,436,367,535,449,368,401,484,459,0,0,0,0,0,0,0,Aspect,16,,,,,,,,Sarah,and,Jane,owned,a,shop,selling,old,furniture.,When,Sarah,was,polishing,the,cheap,furniture,it,looked,new,and,expensive.,?,?,?,?,?,?,?
Spanish,315,37,m,Prog_LateClosure,m,Did the furniture look expensive?,,,,,,,,431,429,517,504,771,305,449,367,1187,401,347,352,779,372,421,523,359,1075,516,343,787,0,0,0,0,0,0,0,Aspect,16,,,,,,,,Sarah,and,Jane,owned,a,shop,selling,old,furniture.,When,Sarah,was,polishing,the,cheap,furniture,it,looked,new,and,expensive.,?,?,?,?,?,?,?
Spanish,319,43,m,Prog_LateClosure,m,Did the furniture look expensive?,,,,,,,,628,209,398,535,370,485,417,329,425,356,235,915,451,324,447,346,319,354,403,413,678,0,0,0,0,0,0,0,Aspect,16,,,,,,,,Sarah,and,Jane,owned,a,shop,selling,old,furniture.,When,Sarah,was,polishing,the,cheap,furniture,it,looked,new,and,expensive.,?,?,?,?,?,?,?
Spanish,323,14,m,Prog_LateClosure,m,Did the furniture look expensive?,,,,,,,,381,412,432,455,509,438,412,407,842,522,433,357,402,416,421,636,429,476,362,500,560,0,0,0,0,0,0,0,Aspect,16,,,,,,,,Sarah,and,Jane,owned,a,shop,selling,old,furniture.,When,Sarah,was,polishing,the,cheap,furniture,it,looked,new,and,expensive.,?,?,?,?,?,?,?
Spanish,327,55,m,Prog_LateClosure,m,Did the furniture look expensive?,,,,,,,,455,333,399,489,455,455,554,540,705,507,312,333,355,962,395,645,429,400,321,443,584,0,0,0,0,0,0,0,Aspect,16,,,,,,,,Sarah,and,Jane,owned,a,shop,selling,old,furniture.,When,Sarah,was,polishing,the,cheap,furniture,it,looked,new,and,expensive.,?,?,?,?,?,?,?
Spanish,301,34,m,Simple_LateClosure,m,Did the furniture look expensive?,,,,,,,,,316,247,350,285,324,231,263,287,251,331,296,241,280,312,306,341,285,674,310,303,0,0,0,0,0,0,0,Aspect,16,,,,,,,,,Sarah,and,Jane,owned,a,shop,selling,old,furniture.,When,Sarah,polished,the,cheap,furniture,it,looked,new,and,expensive.,?,?,?,?,?,?,?
Spanish,305,5,m,Simple_LateClosure,m,Did the furniture look expensive?,,,,,,,,,784,760,663,596,531,711,916,515,692,657,595,547,575,712,702,537,686,503,558,590,0,0,0,0,0,0,0,Aspect,16,,,,,,,,,Sarah,and,Jane,owned,a,shop,selling,old,furniture.,When,Sarah,polished,the,cheap,furniture,it,looked,new,and,expensive.,?,?,?,?,?,?,?
Spanish,309,78,m,Simple_LateClosure,m,Did the furniture look expensive?,,,,,,,,,151,146,170,123,162,166,155,171,161,182,168,175,169,169,173,157,167,162,175,170,0,0,0,0,0,0,0,Aspect,16,,,,,,,,,Sarah,and,Jane,owned,a,shop,selling,old,furniture.,When,Sarah,polished,the,cheap,furniture,it,looked,new,and,expensive.,?,?,?,?,?,?,?
Spanish,321,58,m,Simple_LateClosure,m,Did the furniture look expensive?,,,,,,,,,966,430,538,1087,463,390,650,555,1401,5498,631,1026,395,1578,606,460,446,629,803,1166,0,0,0,0,0,0,0,Aspect,16,,,,,,,,,Sarah,and,Jane,owned,a,shop,selling,old,furniture.,When,Sarah,polished,the,cheap,furniture,it,looked,new,and,expensive.,?,?,?,?,?,?,?
Spanish,302,51,x,Prog_LateClosure,x,Did Tony hate to sing at parties?,,,,,,,,252,761,314,269,274,266,263,347,149,482,130,132,334,318,126,375,280,308,294,321,0,0,0,0,0,0,0,0,Aspect,3,,,,,,,,Tony,and,his,friends,loved,to,sing,at,parties.,When,Tony,was,singing,the,drinking,song,it,sounded,like,opera.,?,?,?,?,?,?,?,?
Spanish,306,17,x,Prog_LateClosure,x,Did Tony hate to sing at parties?,,,,,,,,485,427,369,390,328,363,354,943,694,424,382,323,594,745,719,580,881,649,537,649,0,0,0,0,0,0,0,0,Aspect,3,,,,,,,,Tony,and,his,friends,loved,to,sing,at,parties.,When,Tony,was,singing,the,drinking,song,it,sounded,like,opera.,?,?,?,?,?,?,?,?
Spanish,310,72,x,Prog_LateClosure,x,Did Tony hate to sing at parties?,,,,,,,,1123,380,310,402,422,381,303,426,628,392,269,416,273,412,701,662,896,1540,485,1067,0,0,0,0,0,0,0,0,Aspect,3,,,,,,,,Tony,and,his,friends,loved,to,sing,at,parties.,When,Tony,was,singing,the,drinking,song,it,sounded,like,opera.,?,?,?,?,?,?,?,?
Spanish,318,76,x,Prog_LateClosure,x,Did Tony hate to sing at parties?,,,,,,,,291,279,266,253,283,269,266,265,241,266,265,263,249,254,264,310,480,339,307,272,0,0,0,0,0,0,0,0,Aspect,3,,,,,,,,Tony,and,his,friends,loved,to,sing,at,parties.,When,Tony,was,singing,the,drinking,song,it,sounded,like,opera.,?,?,?,?,?,?,?,?
Spanish,322,36,x,Prog_LateClosure,x,Did Tony hate to sing at parties?,,,,,,,,202,210,148,191,183,169,210,171,247,201,223,231,201,204,331,253,221,211,228,238,0,0,0,0,0,0,0,0,Aspect,3,,,,,,,,Tony,and,his,friends,loved,to,sing,at,parties.,When,Tony,was,singing,the,drinking,song,it,sounded,like,opera.,?,?,?,?,?,?,?,?
Spanish,326,40,x,Prog_LateClosure,x,Did Tony hate to sing at parties?,,,,,,,,1628,216,300,724,430,455,391,376,1532,350,370,460,1655,271,487,361,444,510,1142,308,0,0,0,0,0,0,0,0,Aspect,3,,,,,,,,Tony,and,his,friends,loved,to,sing,at,parties.,When,Tony,was,singing,the,drinking,song,it,sounded,like,opera.,?,?,?,?,?,?,?,?
Spanish,301,58,x,Prog_LateClosure,x,Did the ice-cream drop down the boy’s pants?,,,,,,,279,207,250,257,244,246,227,223,259,245,287,240,229,335,277,269,268,280,294,285,275,286,347,0,0,0,0,0,0,Aspect,14,,,,,,,In,the,"park,",two,children,were,eating,some,ice-cream.,As,the,boy,was,eating,the,chocolate,ice-cream,it,dropped,down,his,clean,shirt.,?,?,?,?,?,?
Spanish,305,46,x,Prog_LateClosure,x,Did the ice-cream drop down the boy’s pants?,,,,,,,417,444,430,466,538,556,486,586,586,563,461,401,323,335,376,396,408,495,423,413,484,452,564,0,0,0,0,0,0,Aspect,14,,,,,,,In,the,"park,",two,children,were,eating,some,ice-cream.,As,the,boy,was,eating,the,chocolate,ice-cream,it,dropped,down,his,clean,shirt.,?,?,?,?,?,?
Spanish,309,1,x,Prog_LateClosure,x,Did the ice-cream drop down the boy’s pants?,,,,,,,375,331,314,310,338,275,292,308,457,569,498,264,332,343,300,367,318,324,327,277,300,293,333,0,0,0,0,0,0,Aspect,14,,,,,,,In,the,"park,",two,children,were,eating,some,ice-cream.,As,the,boy,was,eating,the,chocolate,ice-cream,it,dropped,down,his,clean,shirt.,?,?,?,?,?,?
Spanish,321,59,x,Prog_LateClosure,x,Did the ice-cream drop down the boy’s pants?,,,,,,,271,426,460,546,718,407,958,460,660,521,459,392,513,636,460,691,594,436,494,468,586,527,701,0,0,0,0,0,0,Aspect,14,,,,,,,In,the,"park,",two,children,were,eating,some,ice-cream.,As,the,boy,was,eating,the,chocolate,ice-cream,it,dropped,down,his,clean,shirt.,?,?,?,?,?,?
Spanish,302,29,x,Prog_LateClosure,x,Did the tree stay steady?,132,137,273,251,348,121,253,262,350,252,261,272,517,259,202,620,128,318,357,365,283,120,356,360,387,374,302,422,0,0,0,0,0,0,0,Aspect,15,In,the,"garden,",a,boy,and,a,girl,wanted,to,go,up,into,the,tree-house.,While,the,girl,was,climbing,the,tall,tree,it,started,to,shake,dangerously.,?,?,?,?,?,?,?
Spanish,306,44,x,Prog_LateClosure,x,Did the tree stay steady?,521,379,350,328,318,298,362,329,501,316,309,298,427,326,779,390,363,386,367,707,377,361,405,335,786,323,438,850,0,0,0,0,0,0,0,Aspect,15,In,the,"garden,",a,boy,and,a,girl,wanted,to,go,up,into,the,tree-house.,While,the,girl,was,climbing,the,tall,tree,it,started,to,shake,dangerously.,?,?,?,?,?,?,?
Spanish,310,16,x,Prog_LateClosure,x,Did the tree stay steady?,544,300,277,322,311,250,304,242,272,401,1834,779,546,1111,1153,595,325,281,390,522,351,355,436,462,488,310,356,1731,0,0,0,0,0,0,0,Aspect,15,In,the,"garden,",a,boy,and,a,girl,wanted,to,go,up,into,the,tree-house.,While,the,girl,was,climbing,the,tall,tree,it,started,to,shake,dangerously.,?,?,?,?,?,?,?
Spanish,318,40,x,Prog_LateClosure,x,Did the tree stay steady?,540,380,429,352,285,283,267,261,270,271,256,290,282,290,282,406,283,284,263,305,288,284,501,317,342,286,329,586,0,0,0,0,0,0,0,Aspect,15,In,the,"garden,",a,boy,and,a,girl,wanted,to,go,up,into,the,tree-house.,While,the,girl,was,climbing,the,tall,tree,it,started,to,shake,dangerously.,?,?,?,?,?,?,?
Spanish,322,73,x,Prog_LateClosure,x,Did the tree stay steady?,168,198,172,193,165,165,156,154,150,191,180,151,158,174,127,176,180,165,162,198,143,189,163,177,176,220,195,183,0,0,0,0,0,0,0,Aspect,15,In,the,"garden,",a,boy,and,a,girl,wanted,to,go,up,into,the,tree-house.,While,the,girl,was,climbing,the,tall,tree,it,started,to,shake,dangerously.,?,?,?,?,?,?,?
Spanish,326,5,x,Prog_LateClosure,x,Did the tree stay steady?,1762,387,2047,185,373,148,334,1781,154,276,203,1646,1337,359,1392,1041,151,190,243,1277,221,257,345,1467,912,388,337,443,0,0,0,0,0,0,0,Aspect,15,In,the,"garden,",a,boy,and,a,girl,wanted,to,go,up,into,the,tree-house.,While,the,girl,was,climbing,the,tall,tree,it,started,to,shake,dangerously.,?,?,?,?,?,?,?
Spanish,303,12,m,Simple_LateClosure,m,Did the opera company have three different conductors?,,,,,,,,,,334,471,312,317,278,362,286,758,280,457,463,280,259,427,408,323,299,383,382,387,0,0,0,0,0,0,Aspect,10,,,,,,,,,,The,opera,company,had,three,different,conductors.,When,Mr.,Osaka,conducted,the,symphony,orchestra,it,played,better,than,anyone,else.,?,?,?,?,?,?
Spanish,307,50,m,Simple_LateClosure,m,Did the opera company have three different conductors?,,,,,,,,,,551,560,371,295,334,354,415,370,369,376,690,308,416,338,380,356,342,350,343,392,0,0,0,0,0,0,Aspect,10,,,,,,,,,,The,opera,company,had,three,different,conductors.,When,Mr.,Osaka,conducted,the,symphony,orchestra,it,played,better,than,anyone,else.,?,?,?,?,?,?
Spanish,315,57,m,Simple_LateClosure,m,Did the opera company have three different conductors?,,,,,,,,,,336,768,326,343,805,372,278,287,328,269,265,326,342,223,330,309,271,425,306,394,0,0,0,0,0,0,Aspect,10,,,,,,,,,,The,opera,company,had,three,different,conductors.,When,Mr.,Osaka,conducted,the,symphony,orchestra,it,played,better,than,anyone,else.,?,?,?,?,?,?
Spanish,319,71,m,Simple_LateClosure,m,Did the opera company have three different conductors?,,,,,,,,,,320,519,399,349,435,327,277,536,242,509,435,355,522,467,345,334,362,406,382,514,0,0,0,0,0,0,Aspect,10,,,,,,,,,,The,opera,company,had,three,different,conductors.,When,Mr.,Osaka,conducted,the,symphony,orchestra,it,played,better,than,anyone,else.,?,?,?,?,?,?
Spanish,323,35,m,Simple_LateClosure,m,Did the opera company have three different conductors?,,,,,,,,,,378,335,507,574,337,399,436,452,689,1042,550,480,420,438,349,381,354,405,417,435,0,0,0,0,0,0,Aspect,10,,,,,,,,,,The,opera,company,had,three,different,conductors.,When,Mr.,Osaka,conducted,the,symphony,orchestra,it,played,better,than,anyone,else.,?,?,?,?,?,?
Spanish,327,5,m,Simple_LateClosure,m,Did the opera company have three different conductors?,,,,,,,,,,495,455,625,803,503,431,644,500,633,497,741,832,899,550,379,470,518,400,378,595,0,0,0,0,0,0,Aspect,10,,,,,,,,,,The,opera,company,had,three,different,conductors.,When,Mr.,Osaka,conducted,the,symphony,orchestra,it,played,better,than,anyone,else.,?,?,?,?,?,?
Spanish,304,75,x,Simple_LateClosure,x,Did Tony hate to sing at parties?,,,,,,,,,283,266,241,233,254,403,307,308,288,465,324,398,397,1076,384,325,556,305,547,0,0,0,0,0,0,0,0,Aspect,3,,,,,,,,,Tony,and,his,friends,loved,to,sing,at,parties.,When,Tony,sang,the,drinking,song,it,sounded,like,opera.,?,?,?,?,?,?,?,?
Spanish,308,48,x,Simple_LateClosure,x,Did Tony hate to sing at parties?,,,,,,,,,190,229,195,215,811,222,442,219,249,317,232,265,234,230,398,225,251,255,243,0,0,0,0,0,0,0,0,Aspect,3,,,,,,,,,Tony,and,his,friends,loved,to,sing,at,parties.,When,Tony,sang,the,drinking,song,it,sounded,like,opera.,?,?,?,?,?,?,?,?
Spanish,312,29,x,Simple_LateClosure,x,Did Tony hate to sing at parties?,,,,,,,,,435,291,177,265,742,322,340,325,268,301,312,264,378,352,320,587,351,364,268,0,0,0,0,0,0,0,0,Aspect,3,,,,,,,,,Tony,and,his,friends,loved,to,sing,at,parties.,When,Tony,sang,the,drinking,song,it,sounded,like,opera.,?,?,?,?,?,?,?,?
Spanish,316,52,x,Simple_LateClosure,x,Did Tony hate to sing at parties?,,,,,,,,,216,209,258,225,227,243,216,274,217,212,192,228,221,238,221,207,195,208,241,0,0,0,0,0,0,0,0,Aspect,3,,,,,,,,,Tony,and,his,friends,loved,to,sing,at,parties.,When,Tony,sang,the,drinking,song,it,sounded,like,opera.,?,?,?,?,?,?,?,?
Spanish,320,25,x,Simple_LateClosure,x,Did Tony hate to sing at parties?,,,,,,,,,368,163,155,315,190,167,173,151,161,171,165,161,178,153,215,174,164,169,234,0,0,0,0,0,0,0,0,Aspect,3,,,,,,,,,Tony,and,his,friends,loved,to,sing,at,parties.,When,Tony,sang,the,drinking,song,it,sounded,like,opera.,?,?,?,?,?,?,?,?
Spanish,324,44,x,Simple_LateClosure,x,Did Tony hate to sing at parties?,,,,,,,,,416,364,329,363,340,293,496,321,314,663,418,278,456,335,425,409,399,399,333,0,0,0,0,0,0,0,0,Aspect,3,,,,,,,,,Tony,and,his,friends,loved,to,sing,at,parties.,When,Tony,sang,the,drinking,song,it,sounded,like,opera.,?,?,?,?,?,?,?,?
Spanish,328,74,x,Simple_LateClosure,x,Did Tony hate to sing at parties?,,,,,,,,,170,171,164,151,174,171,179,157,173,175,180,176,202,164,169,165,170,207,187,0,0,0,0,0,0,0,0,Aspect,3,,,,,,,,,Tony,and,his,friends,loved,to,sing,at,parties.,When,Tony,sang,the,drinking,song,it,sounded,like,opera.,?,?,?,?,?,?,?,?
Spanish,302,43,m,Simple_LateClosure,m,Were there different kinds of vehicles at the company?,,,,,,,,122,257,446,289,240,258,526,293,177,394,355,113,173,316,301,310,329,140,264,390,354,322,0,0,0,0,0,0,Aspect,9,,,,,,,,There,were,many,different,kinds,of,vehicles,at,the,company.,When,George,drove,the,big,lorry,it,made,loud,and,strange,noises.,?,?,?,?,?,?
Spanish,306,79,m,Simple_LateClosure,m,Were there different kinds of vehicles at the company?,,,,,,,,654,442,544,557,374,520,703,397,734,415,355,299,410,341,377,333,497,463,432,1276,580,967,0,0,0,0,0,0,Aspect,9,,,,,,,,There,were,many,different,kinds,of,vehicles,at,the,company.,When,George,drove,the,big,lorry,it,made,loud,and,strange,noises.,?,?,?,?,?,?
Spanish,310,71,x,Simple_LateClosure,m,Were there different kinds of vehicles at the company?,,,,,,,,338,412,391,384,253,466,567,396,491,435,2454,343,749,347,438,1027,883,666,987,874,463,539,0,0,0,0,0,0,Aspect,9,,,,,,,,There,were,many,different,kinds,of,vehicles,at,the,company.,When,George,drove,the,big,lorry,it,made,loud,and,strange,noises.,?,?,?,?,?,?
Spanish,318,30,m,Simple_LateClosure,m,Were there different kinds of vehicles at the company?,,,,,,,,318,268,283,311,256,277,262,255,282,284,273,272,293,364,288,274,320,290,366,333,319,314,0,0,0,0,0,0,Aspect,9,,,,,,,,There,were,many,different,kinds,of,vehicles,at,the,company.,When,George,drove,the,big,lorry,it,made,loud,and,strange,noises.,?,?,?,?,?,?
Spanish,322,29,m,Simple_LateClosure,m,Were there different kinds of vehicles at the company?,,,,,,,,181,197,225,192,233,197,208,210,199,196,204,244,183,218,193,227,175,210,240,207,225,230,0,0,0,0,0,0,Aspect,9,,,,,,,,There,were,many,different,kinds,of,vehicles,at,the,company.,When,George,drove,the,big,lorry,it,made,loud,and,strange,noises.,?,?,?,?,?,?
Spanish,326,16,m,Simple_LateClosure,m,Were there different kinds of vehicles at the company?,,,,,,,,982,562,416,351,349,370,1273,1085,301,2613,260,453,420,455,390,414,1988,349,210,531,438,315,0,0,0,0,0,0,Aspect,9,,,,,,,,There,were,many,different,kinds,of,vehicles,at,the,company.,When,George,drove,the,big,lorry,it,made,loud,and,strange,noises.,?,?,?,?,?,?
Spanish,302,31,m,Prog_LateClosure,m,Was the town safe?,,,,,,,385,147,134,338,379,109,487,384,305,575,105,153,322,329,430,123,134,419,428,326,332,327,0,0,0,0,0,0,0,Aspect,11,,,,,,,On,Saturday,"nights,",the,police,department,was,very,busy.,When,the,sheriff,was,patrolling,the,whole,town,it,was,safe,and,secure.,?,?,?,?,?,?,?
Spanish,306,77,m,Prog_LateClosure,m,Was the town safe?,,,,,,,342,279,262,434,528,370,292,279,372,326,316,311,546,1087,338,342,324,370,341,397,448,709,0,0,0,0,0,0,0,Aspect,11,,,,,,,On,Saturday,"nights,",the,police,department,was,very,busy.,When,the,sheriff,was,patrolling,the,whole,town,it,was,safe,and,secure.,?,?,?,?,?,?,?
Spanish,310,27,m,Prog_LateClosure,m,Was the town safe?,,,,,,,485,363,294,282,274,332,331,446,385,2316,434,506,363,338,546,315,345,319,256,334,413,259,0,0,0,0,0,0,0,Aspect,11,,,,,,,On,Saturday,"nights,",the,police,department,was,very,busy.,When,the,sheriff,was,patrolling,the,whole,town,it,was,safe,and,secure.,?,?,?,?,?,?,?
Spanish,318,25,m,Prog_LateClosure,m,Was the town safe?,,,,,,,666,790,272,339,345,405,270,273,330,378,323,372,277,600,325,336,296,420,317,280,332,385,0,0,0,0,0,0,0,Aspect,11,,,,,,,On,Saturday,"nights,",the,police,department,was,very,busy.,When,the,sheriff,was,patrolling,the,whole,town,it,was,safe,and,secure.,?,?,?,?,?,?,?
Spanish,322,59,m,Prog_LateClosure,m,Was the town safe?,,,,,,,154,171,170,167,151,337,168,166,205,191,189,235,188,153,196,206,201,183,190,221,168,194,0,0,0,0,0,0,0,Aspect,11,,,,,,,On,Saturday,"nights,",the,police,department,was,very,busy.,When,the,sheriff,was,patrolling,the,whole,town,it,was,safe,and,secure.,?,?,?,?,?,?,?
Spanish,326,71,m,Prog_LateClosure,m,Was the town safe?,,,,,,,495,194,224,206,315,138,155,823,267,620,435,1198,218,726,277,297,776,314,236,199,209,431,0,0,0,0,0,0,0,Aspect,11,,,,,,,On,Saturday,"nights,",the,police,department,was,very,busy.,When,the,sheriff,was,patrolling,the,whole,town,it,was,safe,and,secure.,?,?,?,?,?,?,?
Spanish,304,38,m,Prog_LateClosure,x,Was the bar full?,,,,,,,,354,411,380,304,288,302,363,319,476,344,360,442,1586,436,442,344,394,331,431,328,321,354,0,0,0,0,0,0,Aspect,1,,,,,,,,It,was,late,and,the,bar,was,full.,As,the,men,were,drinking,the,strong,beer,it,was,spilled,on,the,floor.,?,?,?,?,?,?
Spanish,308,15,m,Prog_LateClosure,x,Was the bar full?,,,,,,,,241,231,214,237,222,229,235,217,212,209,228,217,268,222,213,212,221,239,276,308,200,221,0,0,0,0,0,0,Aspect,1,,,,,,,,It,was,late,and,the,bar,was,full.,As,the,men,were,drinking,the,strong,beer,it,was,spilled,on,the,floor.,?,?,?,?,?,?
Spanish,312,6,m,Prog_LateClosure,x,Was the bar full?,,,,,,,,708,335,413,384,341,370,374,361,417,362,416,345,585,371,388,472,382,456,535,380,337,410,0,0,0,0,0,0,Aspect,1,,,,,,,,It,was,late,and,the,bar,was,full.,As,the,men,were,drinking,the,strong,beer,it,was,spilled,on,the,floor.,?,?,?,?,?,?
Spanish,316,43,m,Prog_LateClosure,x,Was the bar full?,,,,,,,,225,215,260,212,201,185,189,195,223,199,237,232,218,230,220,258,210,220,193,231,228,256,0,0,0,0,0,0,Aspect,1,,,,,,,,It,was,late,and,the,bar,was,full.,As,the,men,were,drinking,the,strong,beer,it,was,spilled,on,the,floor.,?,?,?,?,?,?
Spanish,320,47,m,Prog_LateClosure,x,Was the bar full?,,,,,,,,151,148,139,174,168,169,150,135,192,185,140,204,172,180,177,180,153,148,172,157,179,177,0,0,0,0,0,0,Aspect,1,,,,,,,,It,was,late,and,the,bar,was,full.,As,the,men,were,drinking,the,strong,beer,it,was,spilled,on,the,floor.,?,?,?,?,?,?
Spanish,324,26,x,Prog_LateClosure,x,Was the bar full?,,,,,,,,384,522,509,359,254,433,327,350,425,202,150,701,563,423,351,368,395,354,226,469,353,547,0,0,0,0,0,0,Aspect,1,,,,,,,,It,was,late,and,the,bar,was,full.,As,the,men,were,drinking,the,strong,beer,it,was,spilled,on,the,floor.,?,?,?,?,?,?
Spanish,328,63,m,Prog_LateClosure,x,Was the bar full?,,,,,,,,172,202,201,150,196,151,175,181,175,171,166,203,134,173,179,169,152,202,173,202,178,171,0,0,0,0,0,0,Aspect,1,,,,,,,,It,was,late,and,the,bar,was,full.,As,the,men,were,drinking,the,strong,beer,it,was,spilled,on,the,floor.,?,?,?,?,?,?
Spanish,304,7,m,Simple_LateClosure,m,Was the town safe?,,,,,,,,804,442,392,441,460,383,401,392,339,364,375,438,383,388,662,854,364,365,365,412,479,0,0,0,0,0,0,0,Aspect,11,,,,,,,,On,Saturday,"nights,",the,police,department,was,very,busy.,When,the,sheriff,patrolled,the,whole,town,it,was,safe,and,secure.,?,?,?,?,?,?,?
Spanish,308,54,m,Simple_LateClosure,m,Was the town safe?,,,,,,,,192,475,176,259,216,227,190,248,195,222,227,221,227,195,860,528,281,212,190,188,245,0,0,0,0,0,0,0,Aspect,11,,,,,,,,On,Saturday,"nights,",the,police,department,was,very,busy.,When,the,sheriff,patrolled,the,whole,town,it,was,safe,and,secure.,?,?,?,?,?,?,?
Spanish,312,77,m,Simple_LateClosure,m,Was the town safe?,,,,,,,,337,204,378,329,326,547,217,353,432,427,301,349,321,301,308,545,182,342,339,328,262,0,0,0,0,0,0,0,Aspect,11,,,,,,,,On,Saturday,"nights,",the,police,department,was,very,busy.,When,the,sheriff,patrolled,the,whole,town,it,was,safe,and,secure.,?,?,?,?,?,?,?
Spanish,316,19,m,Simple_LateClosure,m,Was the town safe?,,,,,,,,241,253,247,241,235,271,226,243,216,230,229,263,212,265,285,511,299,314,298,312,492,0,0,0,0,0,0,0,Aspect,11,,,,,,,,On,Saturday,"nights,",the,police,department,was,very,busy.,When,the,sheriff,patrolled,the,whole,town,it,was,safe,and,secure.,?,?,?,?,?,?,?
Spanish,320,52,m,Simple_LateClosure,m,Was the town safe?,,,,,,,,129,137,160,158,288,122,126,144,145,143,309,147,126,144,167,311,127,152,129,154,132,0,0,0,0,0,0,0,Aspect,11,,,,,,,,On,Saturday,"nights,",the,police,department,was,very,busy.,When,the,sheriff,patrolled,the,whole,town,it,was,safe,and,secure.,?,?,?,?,?,?,?
Spanish,324,43,m,Simple_LateClosure,m,Was the town safe?,,,,,,,,490,853,593,441,342,457,403,356,346,974,388,571,437,337,304,441,475,299,407,317,584,0,0,0,0,0,0,0,Aspect,11,,,,,,,,On,Saturday,"nights,",the,police,department,was,very,busy.,When,the,sheriff,patrolled,the,whole,town,it,was,safe,and,secure.,?,?,?,?,?,?,?
Spanish,328,44,m,Simple_LateClosure,m,Was the town safe?,,,,,,,,160,188,178,197,187,200,172,177,175,152,180,141,172,163,160,188,194,165,143,166,172,0,0,0,0,0,0,0,Aspect,11,,,,,,,,On,Saturday,"nights,",the,police,department,was,very,busy.,When,the,sheriff,patrolled,the,whole,town,it,was,safe,and,secure.,?,?,?,?,?,?,?
Spanish,301,74,x,Simple_LateClosure,x,Were there three Italian chefs working at the restaurant?,,,,,,,,,281,250,273,266,292,232,281,242,208,263,261,238,246,248,263,240,258,215,235,271,234,0,0,0,0,0,0,Aspect,8,,,,,,,,,There,were,two,Italian,chefs,working,in,the,restaurant.,Because,Mario,cooked,the,fresh,pasta,it,was,made,to,real,perfection.,?,?,?,?,?,?
Spanish,305,74,x,Simple_LateClosure,x,Were there three Italian chefs working at the restaurant?,,,,,,,,,455,395,1450,523,375,490,368,290,380,599,341,287,337,233,377,344,327,330,338,329,457,0,0,0,0,0,0,Aspect,8,,,,,,,,,There,were,two,Italian,chefs,working,in,the,restaurant.,Because,Mario,cooked,the,fresh,pasta,it,was,made,to,real,perfection.,?,?,?,?,?,?
Spanish,309,68,x,Simple_LateClosure,x,Were there three Italian chefs working at the restaurant?,,,,,,,,,275,188,240,209,213,197,206,173,188,194,200,2011,288,1043,498,535,196,211,443,209,183,0,0,0,0,0,0,Aspect,8,,,,,,,,,There,were,two,Italian,chefs,working,in,the,restaurant.,Because,Mario,cooked,the,fresh,pasta,it,was,made,to,real,perfection.,?,?,?,?,?,?
Spanish,321,78,m,Simple_LateClosure,x,Were there three Italian chefs working at the restaurant?,,,,,,,,,429,415,612,428,494,617,420,371,626,870,522,564,673,582,429,479,502,407,455,521,7122,0,0,0,0,0,0,Aspect,8,,,,,,,,,There,were,two,Italian,chefs,working,in,the,restaurant.,Because,Mario,cooked,the,fresh,pasta,it,was,made,to,real,perfection.,?,?,?,?,?,?
Spanish,302,34,m,Prog_EarlyClosure,m,Did the furniture look expensive?,,,,,,,,247,673,343,287,245,227,331,205,237,605,498,318,346,315,185,369,277,256,308,419,0,0,0,0,0,0,0,0,Aspect,16,,,,,,,,Sarah,and,Jane,owned,a,shop,selling,old,furniture.,When,Sarah,was,polishing,the,cheap,furniture,looked,new,and,expensive.,?,?,?,?,?,?,?,?
Spanish,306,78,m,Prog_EarlyClosure,m,Did the furniture look expensive?,,,,,,,,677,390,286,328,604,414,352,612,829,490,488,373,580,982,574,761,719,484,419,647,0,0,0,0,0,0,0,0,Aspect,16,,,,,,,,Sarah,and,Jane,owned,a,shop,selling,old,furniture.,When,Sarah,was,polishing,the,cheap,furniture,looked,new,and,expensive.,?,?,?,?,?,?,?,?
Spanish,310,12,m,Prog_EarlyClosure,m,Did the furniture look expensive?,,,,,,,,719,338,305,368,441,347,255,738,348,503,285,286,363,525,399,329,869,387,312,485,0,0,0,0,0,0,0,0,Aspect,16,,,,,,,,Sarah,and,Jane,owned,a,shop,selling,old,furniture.,When,Sarah,was,polishing,the,cheap,furniture,looked,new,and,expensive.,?,?,?,?,?,?,?,?
Spanish,318,84,m,Prog_EarlyClosure,m,Did the furniture look expensive?,,,,,,,,295,227,242,256,265,271,264,262,299,261,275,425,286,300,291,266,284,289,286,263,0,0,0,0,0,0,0,0,Aspect,16,,,,,,,,Sarah,and,Jane,owned,a,shop,selling,old,furniture.,When,Sarah,was,polishing,the,cheap,furniture,looked,new,and,expensive.,?,?,?,?,?,?,?,?
Spanish,322,70,m,Prog_EarlyClosure,m,Did the furniture look expensive?,,,,,,,,198,183,229,211,192,225,186,453,228,268,213,182,216,262,206,464,163,182,175,197,0,0,0,0,0,0,0,0,Aspect,16,,,,,,,,Sarah,and,Jane,owned,a,shop,selling,old,furniture.,When,Sarah,was,polishing,the,cheap,furniture,looked,new,and,expensive.,?,?,?,?,?,?,?,?
Spanish,326,2,m,Prog_EarlyClosure,m,Did the furniture look expensive?,,,,,,,,1995,551,1438,308,436,1586,253,1236,1125,1938,339,341,2042,947,1149,1300,723,770,629,1596,0,0,0,0,0,0,0,0,Aspect,16,,,,,,,,Sarah,and,Jane,owned,a,shop,selling,old,furniture.,When,Sarah,was,polishing,the,cheap,furniture,looked,new,and,expensive.,?,?,?,?,?,?,?,?
Spanish,304,29,m,Simple_EarlyClosure,m,Did the furniture look expensive?,,,,,,,,,359,424,335,285,440,387,381,363,525,381,320,402,336,386,417,337,376,409,394,0,0,0,0,0,0,0,0,Aspect,16,,,,,,,,,Sarah,and,Jane,owned,a,shop,selling,old,furniture.,When,Sarah,polished,the,cheap,furniture,looked,new,and,expensive.,?,?,?,?,?,?,?,?
Spanish,308,19,m,Simple_EarlyClosure,m,Did the furniture look expensive?,,,,,,,,,545,220,266,238,552,249,225,249,606,822,446,356,250,290,308,301,404,346,245,0,0,0,0,0,0,0,0,Aspect,16,,,,,,,,,Sarah,and,Jane,owned,a,shop,selling,old,furniture.,When,Sarah,polished,the,cheap,furniture,looked,new,and,expensive.,?,?,?,?,?,?,?,?
Spanish,312,84,m,Simple_EarlyClosure,m,Did the furniture look expensive?,,,,,,,,,294,215,237,298,433,262,246,734,498,376,372,344,316,379,415,405,345,448,399,0,0,0,0,0,0,0,0,Aspect,16,,,,,,,,,Sarah,and,Jane,owned,a,shop,selling,old,furniture.,When,Sarah,polished,the,cheap,furniture,looked,new,and,expensive.,?,?,?,?,?,?,?,?
Spanish,316,10,m,Simple_EarlyClosure,m,Did the furniture look expensive?,,,,,,,,,228,283,255,309,262,274,281,335,282,370,255,284,286,293,309,330,329,295,312,0,0,0,0,0,0,0,0,Aspect,16,,,,,,,,,Sarah,and,Jane,owned,a,shop,selling,old,furniture.,When,Sarah,polished,the,cheap,furniture,looked,new,and,expensive.,?,?,?,?,?,?,?,?
Spanish,320,45,m,Simple_EarlyClosure,m,Did the furniture look expensive?,,,,,,,,,154,124,145,150,157,168,162,182,162,186,152,195,243,200,178,163,169,145,172,0,0,0,0,0,0,0,0,Aspect,16,,,,,,,,,Sarah,and,Jane,owned,a,shop,selling,old,furniture.,When,Sarah,polished,the,cheap,furniture,looked,new,and,expensive.,?,?,?,?,?,?,?,?
Spanish,324,48,m,Simple_EarlyClosure,m,Did the furniture look expensive?,,,,,,,,,285,504,311,546,318,302,367,327,553,1135,287,534,453,337,394,800,561,425,523,0,0,0,0,0,0,0,0,Aspect,16,,,,,,,,,Sarah,and,Jane,owned,a,shop,selling,old,furniture.,When,Sarah,polished,the,cheap,furniture,looked,new,and,expensive.,?,?,?,?,?,?,?,?
Spanish,328,17,m,Simple_EarlyClosure,m,Did the furniture look expensive?,,,,,,,,,132,145,153,150,145,129,161,134,164,163,178,155,179,183,163,172,165,185,181,0,0,0,0,0,0,0,0,Aspect,16,,,,,,,,,Sarah,and,Jane,owned,a,shop,selling,old,furniture.,When,Sarah,polished,the,cheap,furniture,looked,new,and,expensive.,?,?,?,?,?,?,?,?
Spanish,303,54,m,Prog_EarlyClosure,m,Were there different kinds of vehicles at the company?,,,,,,,260,213,272,342,291,292,271,316,314,299,421,272,300,307,309,389,310,376,335,361,388,304,0,0,0,0,0,0,0,Aspect,9,,,,,,,There,were,many,different,kinds,of,vehicles,at,the,company.,When,George,was,driving,the,big,lorry,made,loud,and,strange,noises.,?,?,?,?,?,?,?
Spanish,307,1,m,Prog_EarlyClosure,m,Were there different kinds of vehicles at the company?,,,,,,,417,326,838,488,449,369,555,367,368,472,487,742,478,368,402,421,360,1091,892,434,527,518,0,0,0,0,0,0,0,Aspect,9,,,,,,,There,were,many,different,kinds,of,vehicles,at,the,company.,When,George,was,driving,the,big,lorry,made,loud,and,strange,noises.,?,?,?,?,?,?,?
Spanish,315,69,m,Prog_EarlyClosure,m,Were there different kinds of vehicles at the company?,,,,,,,455,330,531,575,425,429,396,817,436,342,399,489,482,392,349,344,299,738,284,359,291,359,0,0,0,0,0,0,0,Aspect,9,,,,,,,There,were,many,different,kinds,of,vehicles,at,the,company.,When,George,was,driving,the,big,lorry,made,loud,and,strange,noises.,?,?,?,?,?,?,?
Spanish,319,24,m,Prog_EarlyClosure,m,Were there different kinds of vehicles at the company?,,,,,,,307,270,449,329,494,271,284,311,259,385,329,266,441,446,253,322,541,493,686,449,724,630,0,0,0,0,0,0,0,Aspect,9,,,,,,,There,were,many,different,kinds,of,vehicles,at,the,company.,When,George,was,driving,the,big,lorry,made,loud,and,strange,noises.,?,?,?,?,?,?,?
Spanish,323,80,m,Prog_EarlyClosure,m,Were there different kinds of vehicles at the company?,,,,,,,414,379,442,500,905,499,973,563,419,533,1315,1374,396,447,1005,429,989,1049,569,823,473,879,0,0,0,0,0,0,0,Aspect,9,,,,,,,There,were,many,different,kinds,of,vehicles,at,the,company.,When,George,was,driving,the,big,lorry,made,loud,and,strange,noises.,?,?,?,?,?,?,?
Spanish,327,1,m,Prog_EarlyClosure,m,Were there different kinds of vehicles at the company?,,,,,,,538,356,382,445,580,1192,675,475,349,385,689,528,440,789,800,1301,703,648,624,404,587,677,0,0,0,0,0,0,0,Aspect,9,,,,,,,There,were,many,different,kinds,of,vehicles,at,the,company.,When,George,was,driving,the,big,lorry,made,loud,and,strange,noises.,?,?,?,?,?,?,?
Spanish,301,66,m,Simple_EarlyClosure,m,Were there different kinds of vehicles at the company?,,,,,,,,258,250,312,249,242,210,269,248,316,247,254,290,247,293,310,293,475,254,253,285,262,0,0,0,0,0,0,0,Aspect,9,,,,,,,,There,were,many,different,kinds,of,vehicles,at,the,company.,When,George,drove,the,big,lorry,made,loud,and,strange,noises,?,?,?,?,?,?,?
Spanish,305,81,m,Simple_EarlyClosure,m,Were there different kinds of vehicles at the company?,,,,,,,,379,321,256,274,320,307,367,379,345,323,349,311,457,398,469,683,467,454,531,570,486,0,0,0,0,0,0,0,Aspect,9,,,,,,,,There,were,many,different,kinds,of,vehicles,at,the,company.,When,George,drove,the,big,lorry,made,loud,and,strange,noises,?,?,?,?,?,?,?
Spanish,309,20,m,Simple_EarlyClosure,m,Were there different kinds of vehicles at the company?,,,,,,,,315,294,239,266,288,303,265,282,276,252,259,245,258,303,254,256,292,256,300,306,265,0,0,0,0,0,0,0,Aspect,9,,,,,,,,There,were,many,different,kinds,of,vehicles,at,the,company.,When,George,drove,the,big,lorry,made,loud,and,strange,noises,?,?,?,?,?,?,?
Spanish,321,13,m,Simple_EarlyClosure,m,Were there different kinds of vehicles at the company?,,,,,,,,682,633,1052,701,792,640,857,585,542,684,713,637,896,564,562,786,1041,675,962,695,1232,0,0,0,0,0,0,0,Aspect,9,,,,,,,,There,were,many,different,kinds,of,vehicles,at,the,company.,When,George,drove,the,big,lorry,made,loud,and,strange,noises,?,?,?,?,?,?,?
Spanish,304,68,m,Prog_EarlyClosure,m,Did the opera company have three different conductors?,,,,,,,,,306,266,281,265,271,282,247,516,298,486,307,428,312,290,351,412,333,329,297,330,0,0,0,0,0,0,0,Aspect,10,,,,,,,,,The,opera,company,had,three,different,conductors.,When,Mr.,Osaka,was,conducting,the,symphony,orchestra,played,better,than,anyone,else.,?,?,?,?,?,?,?
Spanish,308,34,m,Prog_EarlyClosure,m,Did the opera company have three different conductors?,,,,,,,,,187,237,240,236,623,216,301,1122,249,295,250,236,299,510,346,548,698,287,246,263,0,0,0,0,0,0,0,Aspect,10,,,,,,,,,The,opera,company,had,three,different,conductors.,When,Mr.,Osaka,was,conducting,the,symphony,orchestra,played,better,than,anyone,else.,?,?,?,?,?,?,?
Spanish,312,41,m,Prog_EarlyClosure,m,Did the opera company have three different conductors?,,,,,,,,,325,269,242,248,244,225,362,362,346,266,531,263,370,306,395,344,411,325,348,337,0,0,0,0,0,0,0,Aspect,10,,,,,,,,,The,opera,company,had,three,different,conductors.,When,Mr.,Osaka,was,conducting,the,symphony,orchestra,played,better,than,anyone,else.,?,?,?,?,?,?,?
Spanish,316,50,m,Prog_EarlyClosure,m,Did the opera company have three different conductors?,,,,,,,,,236,255,253,287,233,205,223,235,211,218,247,301,219,230,283,426,293,245,273,265,0,0,0,0,0,0,0,Aspect,10,,,,,,,,,The,opera,company,had,three,different,conductors.,When,Mr.,Osaka,was,conducting,the,symphony,orchestra,played,better,than,anyone,else.,?,?,?,?,?,?,?
Spanish,320,58,m,Prog_EarlyClosure,m,Did the opera company have three different conductors?,,,,,,,,,167,163,111,160,248,171,188,270,177,188,208,144,262,128,160,207,760,222,157,168,0,0,0,0,0,0,0,Aspect,10,,,,,,,,,The,opera,company,had,three,different,conductors.,When,Mr.,Osaka,was,conducting,the,symphony,orchestra,played,better,than,anyone,else.,?,?,?,?,?,?,?
Spanish,324,17,m,Prog_EarlyClosure,m,Did the opera company have three different conductors?,,,,,,,,,380,496,161,677,408,596,1082,513,207,860,390,351,559,542,817,446,551,313,302,306,0,0,0,0,0,0,0,Aspect,10,,,,,,,,,The,opera,company,had,three,different,conductors.,When,Mr.,Osaka,was,conducting,the,symphony,orchestra,played,better,than,anyone,else.,?,?,?,?,?,?,?
Spanish,328,23,m,Prog_EarlyClosure,m,Did the opera company have three different conductors?,,,,,,,,,149,159,156,157,172,183,175,157,181,161,196,181,174,200,181,163,163,170,174,181,0,0,0,0,0,0,0,Aspect,10,,,,,,,,,The,opera,company,had,three,different,conductors.,When,Mr.,Osaka,was,conducting,the,symphony,orchestra,played,better,than,anyone,else.,?,?,?,?,?,?,?
Spanish,302,47,m,Simple_EarlyClosure,m,Did the opera company have three different conductors?,,,,,,,,,,280,148,196,217,155,167,214,281,643,288,349,344,146,328,324,322,310,446,268,0,0,0,0,0,0,0,Aspect,10,,,,,,,,,,The,opera,company,had,three,different,conductors.,When,Mr.,Osaka,conducted,the,symphony,orchestra,played,better,than,anyone,else.,?,?,?,?,?,?,?
Spanish,306,60,m,Simple_EarlyClosure,m,Did the opera company have three different conductors?,,,,,,,,,,344,253,281,328,264,380,259,803,339,370,681,279,702,311,421,429,333,423,352,0,0,0,0,0,0,0,Aspect,10,,,,,,,,,,The,opera,company,had,three,different,conductors.,When,Mr.,Osaka,conducted,the,symphony,orchestra,played,better,than,anyone,else.,?,?,?,?,?,?,?
Spanish,310,78,m,Simple_EarlyClosure,m,Did the opera company have three different conductors?,,,,,,,,,,349,368,296,336,332,452,271,407,301,337,557,510,369,1268,404,426,523,786,2073,0,0,0,0,0,0,0,Aspect,10,,,,,,,,,,The,opera,company,had,three,different,conductors.,When,Mr.,Osaka,conducted,the,symphony,orchestra,played,better,than,anyone,else.,?,?,?,?,?,?,?
Spanish,318,57,m,Simple_EarlyClosure,m,Did the opera company have three different conductors?,,,,,,,,,,296,349,311,335,359,347,305,348,370,290,299,295,327,297,314,290,312,310,342,0,0,0,0,0,0,0,Aspect,10,,,,,,,,,,The,opera,company,had,three,different,conductors.,When,Mr.,Osaka,conducted,the,symphony,orchestra,played,better,than,anyone,else.,?,?,?,?,?,?,?
Spanish,322,12,m,Simple_EarlyClosure,m,Did the opera company have three different conductors?,,,,,,,,,,151,270,183,212,230,474,215,230,207,217,269,222,218,243,204,261,245,235,190,0,0,0,0,0,0,0,Aspect,10,,,,,,,,,,The,opera,company,had,three,different,conductors.,When,Mr.,Osaka,conducted,the,symphony,orchestra,played,better,than,anyone,else.,?,?,?,?,?,?,?
Spanish,326,64,m,Simple_EarlyClosure,m,Did the opera company have three different conductors?,,,,,,,,,,408,238,268,614,229,421,292,603,305,564,572,317,535,604,624,305,373,273,427,0,0,0,0,0,0,0,Aspect,10,,,,,,,,,,The,opera,company,had,three,different,conductors.,When,Mr.,Osaka,conducted,the,symphony,orchestra,played,better,than,anyone,else.,?,?,?,?,?,?,?
Spanish,302,16,m,Prog_LateClosure,m,Did the model keep still?,,,152,294,292,230,140,279,325,353,377,241,118,301,283,242,471,99,184,301,565,177,454,339,324,255,329,283,299,300,0,0,0,0,0,Aspect,19,,,Yesterday,in,my,art,"class,",the,model,sat,in,the,same,position,for,hours.,As,I,was,drawing,the,patient,woman,she,tried,very,hard,to,keep,still.,?,?,?,?,?
Spanish,306,12,m,Prog_LateClosure,m,Did the model keep still?,,,784,479,322,389,391,383,332,482,407,391,417,442,395,398,354,411,296,428,350,405,957,538,630,544,447,370,410,414,0,0,0,0,0,Aspect,19,,,Yesterday,in,my,art,"class,",the,model,sat,in,the,same,position,for,hours.,As,I,was,drawing,the,patient,woman,she,tried,very,hard,to,keep,still.,?,?,?,?,?
Spanish,310,62,m,Prog_LateClosure,m,Did the model keep still?,,,340,411,352,319,450,713,409,365,623,447,570,458,403,377,347,359,366,938,379,487,496,351,488,437,379,415,346,1867,0,0,0,0,0,Aspect,19,,,Yesterday,in,my,art,"class,",the,model,sat,in,the,same,position,for,hours.,As,I,was,drawing,the,patient,woman,she,tried,very,hard,to,keep,still.,?,?,?,?,?
Spanish,318,67,m,Prog_LateClosure,m,Did the model keep still?,,,370,490,293,356,259,288,242,268,263,266,242,251,233,246,280,255,260,524,276,250,286,271,274,244,269,278,299,269,0,0,0,0,0,Aspect,19,,,Yesterday,in,my,art,"class,",the,model,sat,in,the,same,position,for,hours.,As,I,was,drawing,the,patient,woman,she,tried,very,hard,to,keep,still.,?,?,?,?,?
Spanish,322,55,m,Prog_LateClosure,m,Did the model keep still?,,,192,261,263,155,372,179,139,218,172,214,210,198,353,220,140,99,220,162,215,196,190,225,195,166,447,164,327,197,0,0,0,0,0,Aspect,19,,,Yesterday,in,my,art,"class,",the,model,sat,in,the,same,position,for,hours.,As,I,was,drawing,the,patient,woman,she,tried,very,hard,to,keep,still.,?,?,?,?,?
Spanish,326,84,m,Prog_LateClosure,m,Did the model keep still?,,,437,401,224,288,263,472,243,206,314,265,255,233,309,300,484,205,258,210,234,236,265,266,525,292,267,287,269,242,0,0,0,0,0,Aspect,19,,,Yesterday,in,my,art,"class,",the,model,sat,in,the,same,position,for,hours.,As,I,was,drawing,the,patient,woman,she,tried,very,hard,to,keep,still.,?,?,?,?,?
Spanish,304,61,m,Simple_LateClosure,m,Did the model keep still?,,,,278,306,266,224,245,454,292,224,567,353,290,829,540,265,339,259,284,256,323,962,340,475,337,407,338,372,420,0,0,0,0,0,Aspect,19,,,,Yesterday,in,my,art,"class,",the,model,sat,in,the,same,position,for,hours.,As,I,drew,the,patient,woman,she,tried,very,hard,to,keep,still.,?,?,?,?,?
Spanish,308,26,m,Simple_LateClosure,m,Did the model keep still?,,,,506,209,497,267,240,275,235,238,232,237,219,224,239,224,380,206,240,246,241,281,637,233,222,308,269,259,308,0,0,0,0,0,Aspect,19,,,,Yesterday,in,my,art,"class,",the,model,sat,in,the,same,position,for,hours.,As,I,drew,the,patient,woman,she,tried,very,hard,to,keep,still.,?,?,?,?,?
Spanish,312,60,m,Simple_LateClosure,m,Did the model keep still?,,,,302,252,261,198,381,374,247,316,323,292,541,333,355,336,433,384,621,350,383,423,411,49,974,371,311,456,305,0,0,0,0,0,Aspect,19,,,,Yesterday,in,my,art,"class,",the,model,sat,in,the,same,position,for,hours.,As,I,drew,the,patient,woman,she,tried,very,hard,to,keep,still.,?,?,?,?,?
Spanish,316,5,m,Simple_LateClosure,m,Did the model keep still?,,,,237,434,287,515,430,389,373,420,356,244,318,376,320,380,352,298,351,298,495,350,437,443,439,428,413,390,472,0,0,0,0,0,Aspect,19,,,,Yesterday,in,my,art,"class,",the,model,sat,in,the,same,position,for,hours.,As,I,drew,the,patient,woman,she,tried,very,hard,to,keep,still.,?,?,?,?,?
Spanish,320,72,m,Simple_LateClosure,m,Did the model keep still?,,,,280,163,493,235,690,204,280,386,592,1891,261,239,152,132,129,105,78,62,80,173,272,592,142,150,133,156,204,0,0,0,0,0,Aspect,19,,,,Yesterday,in,my,art,"class,",the,model,sat,in,the,same,position,for,hours.,As,I,drew,the,patient,woman,she,tried,very,hard,to,keep,still.,?,?,?,?,?
Spanish,324,58,x,Simple_LateClosure,m,Did the model keep still?,,,,410,447,357,333,384,541,669,403,395,505,419,480,393,361,874,382,361,425,371,366,421,424,357,416,344,337,378,0,0,0,0,0,Aspect,19,,,,Yesterday,in,my,art,"class,",the,model,sat,in,the,same,position,for,hours.,As,I,drew,the,patient,woman,she,tried,very,hard,to,keep,still.,?,?,?,?,?
Spanish,328,41,m,Simple_LateClosure,m,Did the model keep still?,,,,142,180,187,186,202,162,182,196,207,195,177,201,193,196,167,173,156,199,164,198,187,152,207,198,225,246,174,0,0,0,0,0,Aspect,19,,,,Yesterday,in,my,art,"class,",the,model,sat,in,the,same,position,for,hours.,As,I,drew,the,patient,woman,she,tried,very,hard,to,keep,still.,?,?,?,?,?
Spanish,304,84,x,Prog_EarlyClosure,x,Was the flat tidy?,,,,,,,,,294,227,231,224,226,240,255,389,292,219,258,288,270,271,281,291,284,290,326,0,0,0,0,0,0,0,0,Aspect,6,,,,,,,,,The,flat,was,very,old,and,dirty.,Even,when,Joe,was,cleaning,the,small,kitchen,smelled,like,old,rubbish.,?,?,?,?,?,?,?,?
Spanish,308,7,x,Prog_EarlyClosure,x,Was the flat tidy?,,,,,,,,,349,318,318,359,279,294,331,600,248,305,282,395,291,233,377,295,375,353,509,0,0,0,0,0,0,0,0,Aspect,6,,,,,,,,,The,flat,was,very,old,and,dirty.,Even,when,Joe,was,cleaning,the,small,kitchen,smelled,like,old,rubbish.,?,?,?,?,?,?,?,?
Spanish,312,73,x,Prog_EarlyClosure,x,Was the flat tidy?,,,,,,,,,269,245,284,547,276,407,260,963,389,482,294,481,341,450,543,583,422,343,396,0,0,0,0,0,0,0,0,Aspect,6,,,,,,,,,The,flat,was,very,old,and,dirty.,Even,when,Joe,was,cleaning,the,small,kitchen,smelled,like,old,rubbish.,?,?,?,?,?,?,?,?
Spanish,316,63,x,Prog_EarlyClosure,x,Was the flat tidy?,,,,,,,,,323,246,311,320,393,364,226,283,274,235,280,378,401,373,534,304,254,284,263,0,0,0,0,0,0,0,0,Aspect,6,,,,,,,,,The,flat,was,very,old,and,dirty.,Even,when,Joe,was,cleaning,the,small,kitchen,smelled,like,old,rubbish.,?,?,?,?,?,?,?,?
Spanish,320,29,x,Prog_EarlyClosure,x,Was the flat tidy?,,,,,,,,,189,150,123,141,149,142,141,121,150,328,183,123,141,129,220,280,138,145,137,0,0,0,0,0,0,0,0,Aspect,6,,,,,,,,,The,flat,was,very,old,and,dirty.,Even,when,Joe,was,cleaning,the,small,kitchen,smelled,like,old,rubbish.,?,?,?,?,?,?,?,?
Spanish,324,37,x,Prog_EarlyClosure,x,Was the flat tidy?,,,,,,,,,385,488,315,387,372,412,393,998,430,586,330,628,625,460,330,579,314,312,392,0,0,0,0,0,0,0,0,Aspect,6,,,,,,,,,The,flat,was,very,old,and,dirty.,Even,when,Joe,was,cleaning,the,small,kitchen,smelled,like,old,rubbish.,?,?,?,?,?,?,?,?
Spanish,328,7,x,Prog_EarlyClosure,x,Was the flat tidy?,,,,,,,,,168,198,163,187,190,204,180,171,179,178,193,178,167,185,172,173,186,189,193,0,0,0,0,0,0,0,0,Aspect,6,,,,,,,,,The,flat,was,very,old,and,dirty.,Even,when,Joe,was,cleaning,the,small,kitchen,smelled,like,old,rubbish.,?,?,?,?,?,?,?,?
Spanish,302,23,x,Simple_EarlyClosure,x,Was the flat tidy?,,,,,,,,,,967,318,149,305,289,280,206,310,296,225,364,311,293,305,291,266,285,275,0,0,0,0,0,0,0,0,Aspect,6,,,,,,,,,,The,flat,was,very,old,and,dirty.,Even,when,Joe,cleaned,the,small,kitchen,smelled,like,old,rubbish.,?,?,?,?,?,?,?,?
Spanish,306,74,x,Simple_EarlyClosure,x,Was the flat tidy?,,,,,,,,,,419,318,438,394,394,362,621,326,336,765,662,363,397,747,604,441,348,668,0,0,0,0,0,0,0,0,Aspect,6,,,,,,,,,,The,flat,was,very,old,and,dirty.,Even,when,Joe,cleaned,the,small,kitchen,smelled,like,old,rubbish.,?,?,?,?,?,?,?,?
Spanish,310,22,m,Simple_EarlyClosure,x,Was the flat tidy?,,,,,,,,,,359,329,432,343,281,717,416,1841,528,497,867,873,632,996,971,422,429,490,0,0,0,0,0,0,0,0,Aspect,6,,,,,,,,,,The,flat,was,very,old,and,dirty.,Even,when,Joe,cleaned,the,small,kitchen,smelled,like,old,rubbish.,?,?,?,?,?,?,?,?
Spanish,318,58,x,Simple_EarlyClosure,x,Was the flat tidy?,,,,,,,,,,291,277,280,286,266,256,288,282,287,299,290,293,311,232,289,560,227,285,0,0,0,0,0,0,0,0,Aspect,6,,,,,,,,,,The,flat,was,very,old,and,dirty.,Even,when,Joe,cleaned,the,small,kitchen,smelled,like,old,rubbish.,?,?,?,?,?,?,?,?
Spanish,322,17,x,Simple_EarlyClosure,x,Was the flat tidy?,,,,,,,,,,220,229,202,246,209,267,275,224,221,211,207,274,264,227,234,191,240,634,0,0,0,0,0,0,0,0,Aspect,6,,,,,,,,,,The,flat,was,very,old,and,dirty.,Even,when,Joe,cleaned,the,small,kitchen,smelled,like,old,rubbish.,?,?,?,?,?,?,?,?
Spanish,326,18,x,Simple_EarlyClosure,x,Was the flat tidy?,,,,,,,,,,334,486,265,234,235,1546,1271,1367,258,384,219,454,546,388,718,628,361,937,0,0,0,0,0,0,0,0,Aspect,6,,,,,,,,,,The,flat,was,very,old,and,dirty.,Even,when,Joe,cleaned,the,small,kitchen,smelled,like,old,rubbish.,?,?,?,?,?,?,?,?
Spanish,301,1,x,Prog_EarlyClosure,x,Did Tony hate to sing at parties?,,,,,,,,425,270,271,264,286,293,254,285,350,361,304,282,281,338,292,340,282,372,312,0,0,0,0,0,0,0,0,0,Aspect,3,,,,,,,,Tony,and,his,friends,loved,to,sing,at,parties.,When,Tony,was,singing,the,drinking,song,sounded,like,opera.,?,?,?,?,?,?,?,?,?
Spanish,305,78,x,Prog_EarlyClosure,x,Did Tony hate to sing at parties?,,,,,,,,396,373,385,375,396,412,376,349,355,343,367,360,351,310,307,615,652,369,380,0,0,0,0,0,0,0,0,0,Aspect,3,,,,,,,,Tony,and,his,friends,loved,to,sing,at,parties.,When,Tony,was,singing,the,drinking,song,sounded,like,opera.,?,?,?,?,?,?,?,?,?
Spanish,309,51,x,Prog_EarlyClosure,x,Did Tony hate to sing at parties?,,,,,,,,318,201,178,168,183,183,180,175,185,189,199,173,150,188,186,187,155,357,256,0,0,0,0,0,0,0,0,0,Aspect,3,,,,,,,,Tony,and,his,friends,loved,to,sing,at,parties.,When,Tony,was,singing,the,drinking,song,sounded,like,opera.,?,?,?,?,?,?,?,?,?
Spanish,321,17,x,Prog_EarlyClosure,x,Did Tony hate to sing at parties?,,,,,,,,1235,343,512,475,783,637,1842,469,5449,484,359,322,520,352,438,510,453,473,941,0,0,0,0,0,0,0,0,0,Aspect,3,,,,,,,,Tony,and,his,friends,loved,to,sing,at,parties.,When,Tony,was,singing,the,drinking,song,sounded,like,opera.,?,?,?,?,?,?,?,?,?
Spanish,303,70,x,Simple_EarlyClosure,x,Did Tony hate to sing at parties?,,,,,,,,,406,389,279,299,270,288,264,254,267,909,315,291,297,688,476,571,264,287,0,0,0,0,0,0,0,0,0,Aspect,3,,,,,,,,,Tony,and,his,friends,loved,to,sing,at,parties.,When,Tony,sang,the,drinking,song,sounded,like,opera.,?,?,?,?,?,?,?,?,?
Spanish,307,55,x,Simple_EarlyClosure,x,Did Tony hate to sing at parties?,,,,,,,,,405,277,325,329,322,376,381,323,332,326,370,310,308,321,345,381,317,475,0,0,0,0,0,0,0,0,0,Aspect,3,,,,,,,,,Tony,and,his,friends,loved,to,sing,at,parties.,When,Tony,sang,the,drinking,song,sounded,like,opera.,?,?,?,?,?,?,?,?,?
Spanish,315,17,x,Simple_EarlyClosure,x,Did Tony hate to sing at parties?,,,,,,,,,364,357,507,288,255,323,302,256,396,834,229,302,233,457,669,469,493,467,0,0,0,0,0,0,0,0,0,Aspect,3,,,,,,,,,Tony,and,his,friends,loved,to,sing,at,parties.,When,Tony,sang,the,drinking,song,sounded,like,opera.,?,?,?,?,?,?,?,?,?
Spanish,319,39,x,Simple_EarlyClosure,x,Did Tony hate to sing at parties?,,,,,,,,,283,267,399,207,306,264,393,270,382,429,171,418,338,359,323,734,593,1498,0,0,0,0,0,0,0,0,0,Aspect,3,,,,,,,,,Tony,and,his,friends,loved,to,sing,at,parties.,When,Tony,sang,the,drinking,song,sounded,like,opera.,?,?,?,?,?,?,?,?,?
Spanish,323,11,x,Simple_EarlyClosure,x,Did Tony hate to sing at parties?,,,,,,,,,444,444,442,443,433,461,499,477,767,519,501,385,485,833,763,870,812,1133,0,0,0,0,0,0,0,0,0,Aspect,3,,,,,,,,,Tony,and,his,friends,loved,to,sing,at,parties.,When,Tony,sang,the,drinking,song,sounded,like,opera.,?,?,?,?,?,?,?,?,?
Spanish,327,57,x,Simple_EarlyClosure,x,Did Tony hate to sing at parties?,,,,,,,,,291,297,348,329,366,520,326,436,340,528,321,429,499,656,509,766,369,462,0,0,0,0,0,0,0,0,0,Aspect,3,,,,,,,,,Tony,and,his,friends,loved,to,sing,at,parties.,When,Tony,sang,the,drinking,song,sounded,like,opera.,?,?,?,?,?,?,?,?,?
Spanish,301,38,x,Prog_EarlyClosure,x,Did the tree stay steady?,231,261,290,315,399,311,286,314,301,292,290,274,254,275,257,356,286,301,335,322,304,258,270,353,276,249,278,0,0,0,0,0,0,0,0,Aspect,15,In,the,"garden,",a,boy,and,a,girl,wanted,to,go,up,into,the,tree-house.,While,the,girl,was,climbing,the,tall,tree,started,to,shake,dangerously.,?,?,?,?,?,?,?,?
Spanish,305,63,x,Prog_EarlyClosure,x,Did the tree stay steady?,568,324,471,375,386,407,364,390,356,366,383,353,406,377,1368,479,392,496,433,954,553,419,406,441,375,369,556,0,0,0,0,0,0,0,0,Aspect,15,In,the,"garden,",a,boy,and,a,girl,wanted,to,go,up,into,the,tree-house.,While,the,girl,was,climbing,the,tall,tree,started,to,shake,dangerously.,?,?,?,?,?,?,?,?
Spanish,309,64,x,Prog_EarlyClosure,x,Did the tree stay steady?,334,196,163,166,175,176,175,179,181,177,190,186,169,179,174,190,181,375,175,197,297,175,196,176,186,207,219,0,0,0,0,0,0,0,0,Aspect,15,In,the,"garden,",a,boy,and,a,girl,wanted,to,go,up,into,the,tree-house.,While,the,girl,was,climbing,the,tall,tree,started,to,shake,dangerously.,?,?,?,?,?,?,?,?
Spanish,321,37,x,Prog_EarlyClosure,x,Did the tree stay steady?,521,570,1274,517,403,601,569,558,623,469,444,461,549,746,1188,505,553,391,373,554,580,1039,554,356,372,653,1495,0,0,0,0,0,0,0,0,Aspect,15,In,the,"garden,",a,boy,and,a,girl,wanted,to,go,up,into,the,tree-house.,While,the,girl,was,climbing,the,tall,tree,started,to,shake,dangerously.,?,?,?,?,?,?,?,?
Spanish,303,16,x,Simple_EarlyClosure,x,Did the tree stay steady?,,285,246,455,316,435,276,245,249,302,409,364,319,473,256,671,848,241,234,285,347,351,352,327,376,296,509,0,0,0,0,0,0,0,0,Aspect,15,,In,the,"garden,",a,boy,and,a,girl,wanted,to,go,up,into,the,tree-house.,While,the,girl,climbed,the,tall,tree,started,to,shake,dangerously.,?,?,?,?,?,?,?,?
Spanish,307,59,x,Simple_EarlyClosure,x,Did the tree stay steady?,,496,487,555,543,531,409,346,382,322,328,461,275,336,408,415,425,295,330,337,361,338,376,524,389,358,504,0,0,0,0,0,0,0,0,Aspect,15,,In,the,"garden,",a,boy,and,a,girl,wanted,to,go,up,into,the,tree-house.,While,the,girl,climbed,the,tall,tree,started,to,shake,dangerously.,?,?,?,?,?,?,?,?
Spanish,315,41,m,Simple_EarlyClosure,x,Did the tree stay steady?,,643,235,547,314,326,383,425,924,394,420,443,429,414,403,771,372,282,260,518,269,298,356,529,370,279,847,0,0,0,0,0,0,0,0,Aspect,15,,In,the,"garden,",a,boy,and,a,girl,wanted,to,go,up,into,the,tree-house.,While,the,girl,climbed,the,tall,tree,started,to,shake,dangerously.,?,?,?,?,?,?,?,?
Spanish,319,41,x,Simple_EarlyClosure,x,Did the tree stay steady?,,509,335,368,281,251,294,319,432,225,271,238,307,369,207,831,484,207,303,630,365,354,526,391,258,330,726,0,0,0,0,0,0,0,0,Aspect,15,,In,the,"garden,",a,boy,and,a,girl,wanted,to,go,up,into,the,tree-house.,While,the,girl,climbed,the,tall,tree,started,to,shake,dangerously.,?,?,?,?,?,?,?,?
Spanish,323,49,x,Simple_EarlyClosure,x,Did the tree stay steady?,,236,250,513,316,336,383,273,325,429,554,579,371,518,412,753,430,325,322,360,289,325,362,343,318,522,698,0,0,0,0,0,0,0,0,Aspect,15,,In,the,"garden,",a,boy,and,a,girl,wanted,to,go,up,into,the,tree-house.,While,the,girl,climbed,the,tall,tree,started,to,shake,dangerously.,?,?,?,?,?,?,?,?
Spanish,327,77,x,Simple_EarlyClosure,x,Did the tree stay steady?,,305,260,309,319,294,884,279,378,281,224,303,231,502,264,1145,415,247,285,322,295,282,426,387,474,261,1725,0,0,0,0,0,0,0,0,Aspect,15,,In,the,"garden,",a,boy,and,a,girl,wanted,to,go,up,into,the,tree-house.,While,the,girl,climbed,the,tall,tree,started,to,shake,dangerously.,?,?,?,?,?,?,?,?
Spanish,304,83,x,Prog_LateClosure,x,Were the workers lazy?,,,,,,,370,261,220,394,265,371,247,488,329,310,3640,493,310,235,299,247,227,265,289,276,265,0,0,0,0,0,0,0,0,Aspect,13,,,,,,,Maggie,and,Fred,were,the,two,supervisors,at,the,factory.,When,Maggie,was,supervising,the,night,staff,they,worked,extremely,efficiently.,?,?,?,?,?,?,?,?
Spanish,308,38,x,Prog_LateClosure,x,Were the workers lazy?,,,,,,,191,258,251,200,631,244,215,573,264,237,346,201,232,236,262,250,263,245,297,510,478,0,0,0,0,0,0,0,0,Aspect,13,,,,,,,Maggie,and,Fred,were,the,two,supervisors,at,the,factory.,When,Maggie,was,supervising,the,night,staff,they,worked,extremely,efficiently.,?,?,?,?,?,?,?,?
Spanish,312,37,x,Prog_LateClosure,x,Were the workers lazy?,,,,,,,300,285,292,360,306,285,378,454,341,291,424,307,425,528,469,349,461,1138,327,379,622,0,0,0,0,0,0,0,0,Aspect,13,,,,,,,Maggie,and,Fred,were,the,two,supervisors,at,the,factory.,When,Maggie,was,supervising,the,night,staff,they,worked,extremely,efficiently.,?,?,?,?,?,?,?,?
Spanish,316,72,x,Prog_LateClosure,x,Were the workers lazy?,,,,,,,226,176,213,238,223,241,448,272,260,436,258,213,220,982,243,234,336,213,218,224,360,0,0,0,0,0,0,0,0,Aspect,13,,,,,,,Maggie,and,Fred,were,the,two,supervisors,at,the,factory.,When,Maggie,was,supervising,the,night,staff,they,worked,extremely,efficiently.,?,?,?,?,?,?,?,?
Spanish,320,37,x,Prog_LateClosure,x,Were the workers lazy?,,,,,,,583,154,167,162,195,129,176,353,428,156,174,227,347,185,152,172,199,177,209,163,179,0,0,0,0,0,0,0,0,Aspect,13,,,,,,,Maggie,and,Fred,were,the,two,supervisors,at,the,factory.,When,Maggie,was,supervising,the,night,staff,they,worked,extremely,efficiently.,?,?,?,?,?,?,?,?
Spanish,324,33,x,Prog_LateClosure,x,Were the workers lazy?,,,,,,,428,247,526,297,215,239,390,204,569,219,352,430,176,644,343,437,480,447,354,362,573,0,0,0,0,0,0,0,0,Aspect,13,,,,,,,Maggie,and,Fred,were,the,two,supervisors,at,the,factory.,When,Maggie,was,supervising,the,night,staff,they,worked,extremely,efficiently.,?,?,?,?,?,?,?,?
Spanish,328,40,x,Prog_LateClosure,x,Were the workers lazy?,,,,,,,188,185,166,178,187,178,157,171,187,183,181,169,197,165,175,181,164,152,200,186,189,0,0,0,0,0,0,0,0,Aspect,13,,,,,,,Maggie,and,Fred,were,the,two,supervisors,at,the,factory.,When,Maggie,was,supervising,the,night,staff,they,worked,extremely,efficiently.,?,?,?,?,?,?,?,?
Spanish,304,65,x,Prog_LateClosure,x,Did the clothes stay whole?,,,,,,,,336,291,253,406,320,275,484,292,278,320,459,292,285,291,278,457,344,321,279,297,565,0,0,0,0,0,0,0,Aspect,17,,,,,,,,Rita,and,Violet,took,turns,to,do,the,washing.,When,Rita,was,washing,the,delicate,clothes,they,were,torn,to,pieces.,?,?,?,?,?,?,?
Spanish,308,58,x,Prog_LateClosure,x,Did the clothes stay whole?,,,,,,,,206,204,187,173,242,204,211,210,217,231,585,173,210,200,206,223,249,199,217,259,223,0,0,0,0,0,0,0,Aspect,17,,,,,,,,Rita,and,Violet,took,turns,to,do,the,washing.,When,Rita,was,washing,the,delicate,clothes,they,were,torn,to,pieces.,?,?,?,?,?,?,?
Spanish,312,68,m,Prog_LateClosure,x,Did the clothes stay whole?,,,,,,,,195,678,502,292,544,373,328,367,425,351,339,297,384,326,323,379,338,355,358,353,326,0,0,0,0,0,0,0,Aspect,17,,,,,,,,Rita,and,Violet,took,turns,to,do,the,washing.,When,Rita,was,washing,the,delicate,clothes,they,were,torn,to,pieces.,?,?,?,?,?,?,?
Spanish,316,33,x,Prog_LateClosure,x,Did the clothes stay whole?,,,,,,,,199,223,259,233,226,243,204,215,217,214,234,259,246,235,192,252,261,236,214,151,233,0,0,0,0,0,0,0,Aspect,17,,,,,,,,Rita,and,Violet,took,turns,to,do,the,washing.,When,Rita,was,washing,the,delicate,clothes,they,were,torn,to,pieces.,?,?,?,?,?,?,?
