Group,Participant,Trial,Response,Condition,Correct,q1,S1.RT,S2.RT,S3.RT,S4.RT,S5.RT,S6.RT,S7.RT,S8.RT,S9.RT,S10.RT,S11.RT,S12.RT,S13.RT,S14.RT,S15.RT,S16.RT,S17.RT,S18.RT,S19.RT,S20.RT,S21.RT,S22.RT,S23.RT,S24.RT,S25.RT,S26.RT,S27.RT,S28.RT,S29.RT,S30.RT,S31.RT,S32.RT,S33.RT,S34.RT,S35.RT,Study,Item,w1,w2,w3,w4,w5,w6,w7,w8,w9,w10,w11,w12,w13,w14,w15,w16,w17,w18,w19,w20,w21,w22,w23,w24,w25,w26,w27,w28,w29,w30,w31,w32,w33,w34,w35
German,106,42,m,Prog_EarlyClosure,m,Did the horse jump a fence?,,,,,,,,,447,369,429,480,433,447,434,321,635,610,363,428,600,478,465,464,941,805,480,346,359,0,0,0,0,0,0,Aspect,12,,,,,,,,,Jenny,and,Sam,went,out,for,a,ride.,While,Jenny,was,riding,the,young,horse,decided,to,jump,a,high,fence.,?,?,?,?,?,?
German,110,18,m,Prog_EarlyClosure,m,Did the horse jump a fence?,,,,,,,,,434,442,1270,662,413,376,317,466,806,325,498,370,395,535,352,330,348,704,575,424,638,0,0,0,0,0,0,Aspect,12,,,,,,,,,Jenny,and,Sam,went,out,for,a,ride.,While,Jenny,was,riding,the,young,horse,decided,to,jump,a,high,fence.,?,?,?,?,?,?
German,114,43,m,Prog_EarlyClosure,m,Did the horse jump a fence?,,,,,,,,,219,67,226,179,538,203,208,185,187,346,224,212,195,206,266,153,175,291,242,248,199,0,0,0,0,0,0,Aspect,12,,,,,,,,,Jenny,and,Sam,went,out,for,a,ride.,While,Jenny,was,riding,the,young,horse,decided,to,jump,a,high,fence.,?,?,?,?,?,?
German,118,16,m,Prog_EarlyClosure,m,Did the horse jump a fence?,,,,,,,,,447,434,399,371,377,373,374,336,408,374,359,333,386,356,373,367,397,394,375,419,554,0,0,0,0,0,0,Aspect,12,,,,,,,,,Jenny,and,Sam,went,out,for,a,ride.,While,Jenny,was,riding,the,young,horse,decided,to,jump,a,high,fence.,?,?,?,?,?,?
German,122,21,m,Prog_EarlyClosure,m,Did the horse jump a fence?,,,,,,,,,526,242,260,926,353,447,266,345,392,255,240,310,427,346,256,243,267,321,427,303,285,0,0,0,0,0,0,Aspect,12,,,,,,,,,Jenny,and,Sam,went,out,for,a,ride.,While,Jenny,was,riding,the,young,horse,decided,to,jump,a,high,fence.,?,?,?,?,?,?
German,126,52,m,Prog_EarlyClosure,m,Did the horse jump a fence?,,,,,,,,,437,411,413,383,336,388,370,386,406,391,375,385,386,644,714,1173,547,355,383,361,446,0,0,0,0,0,0,Aspect,12,,,,,,,,,Jenny,and,Sam,went,out,for,a,ride.,While,Jenny,was,riding,the,young,horse,decided,to,jump,a,high,fence.,?,?,?,?,?,?
German,112,72,m,Simple_EarlyClosure,m,Did the horse jump a fence?,,,,,,,,,,543,419,389,400,392,392,511,425,566,622,522,536,402,412,613,867,409,459,454,819,0,0,0,0,0,0,Aspect,12,,,,,,,,,,Jenny,and,Sam,went,out,for,a,ride.,While,Jenny,rode,the,young,horse,decided,to,jump,a,high,fence.,?,?,?,?,?,?
German,116,52,m,Simple_EarlyClosure,m,Did the horse jump a fence?,,,,,,,,,,422,154,113,137,104,124,138,397,523,133,132,412,175,158,332,170,190,207,298,188,0,0,0,0,0,0,Aspect,12,,,,,,,,,,Jenny,and,Sam,went,out,for,a,ride.,While,Jenny,rode,the,young,horse,decided,to,jump,a,high,fence.,?,?,?,?,?,?
German,120,61,m,Simple_EarlyClosure,m,Did the horse jump a fence?,,,,,,,,,,329,192,211,201,187,203,188,235,204,222,200,205,201,205,395,202,217,314,233,217,0,0,0,0,0,0,Aspect,12,,,,,,,,,,Jenny,and,Sam,went,out,for,a,ride.,While,Jenny,rode,the,young,horse,decided,to,jump,a,high,fence.,?,?,?,?,?,?
German,124,37,m,Simple_EarlyClosure,m,Did the horse jump a fence?,,,,,,,,,,438,572,316,594,418,541,462,691,240,547,333,616,818,505,560,467,563,624,445,954,0,0,0,0,0,0,Aspect,12,,,,,,,,,,Jenny,and,Sam,went,out,for,a,ride.,While,Jenny,rode,the,young,horse,decided,to,jump,a,high,fence.,?,?,?,?,?,?
German,128,42,m,Simple_EarlyClosure,m,Did the horse jump a fence?,,,,,,,,,,594,254,269,308,279,256,227,261,258,298,443,296,244,312,316,354,310,279,323,384,0,0,0,0,0,0,Aspect,12,,,,,,,,,,Jenny,and,Sam,went,out,for,a,ride.,While,Jenny,rode,the,young,horse,decided,to,jump,a,high,fence.,?,?,?,?,?,?
German,132,81,m,Simple_EarlyClosure,m,Did the horse jump a fence?,,,,,,,,,,278,273,196,281,196,184,346,184,182,348,168,111,372,350,476,514,323,239,331,330,0,0,0,0,0,0,Aspect,12,,,,,,,,,,Jenny,and,Sam,went,out,for,a,ride.,While,Jenny,rode,the,young,horse,decided,to,jump,a,high,fence.,?,?,?,?,?,?
German,112,58,x,Prog_EarlyClosure,x,Did the ice-cream drop down the boy’s pants?,,,,,,,478,391,443,409,415,389,434,426,1332,529,457,407,369,432,475,522,541,1718,520,574,718,938,0,0,0,0,0,0,0,Aspect,14,,,,,,,In,the,"park,",two,children,were,eating,some,ice-cream.,As,the,boy,was,eating,the,chocolate,ice-cream,dropped,down,his,clean,shirt.,?,?,?,?,?,?,?
German,116,12,x,Prog_EarlyClosure,x,Did the ice-cream drop down the boy’s pants?,,,,,,,282,214,232,399,253,313,271,227,422,304,274,232,276,697,298,336,525,267,551,292,314,417,0,0,0,0,0,0,0,Aspect,14,,,,,,,In,the,"park,",two,children,were,eating,some,ice-cream.,As,the,boy,was,eating,the,chocolate,ice-cream,dropped,down,his,clean,shirt.,?,?,?,?,?,?,?
German,120,18,x,Prog_EarlyClosure,x,Did the ice-cream drop down the boy’s pants?,,,,,,,272,228,271,291,259,302,306,326,278,286,299,686,331,351,334,515,334,447,376,370,305,270,0,0,0,0,0,0,0,Aspect,14,,,,,,,In,the,"park,",two,children,were,eating,some,ice-cream.,As,the,boy,was,eating,the,chocolate,ice-cream,dropped,down,his,clean,shirt.,?,?,?,?,?,?,?
German,124,32,x,Prog_EarlyClosure,x,Did the ice-cream drop down the boy’s pants?,,,,,,,291,653,354,388,947,295,276,437,533,638,285,330,427,445,377,464,558,451,1183,989,349,666,0,0,0,0,0,0,0,Aspect,14,,,,,,,In,the,"park,",two,children,were,eating,some,ice-cream.,As,the,boy,was,eating,the,chocolate,ice-cream,dropped,down,his,clean,shirt.,?,?,?,?,?,?,?
German,128,21,m,Prog_EarlyClosure,x,Did the ice-cream drop down the boy’s pants?,,,,,,,321,485,1085,357,280,255,282,340,285,286,498,313,388,267,258,317,263,299,437,515,221,339,0,0,0,0,0,0,0,Aspect,14,,,,,,,In,the,"park,",two,children,were,eating,some,ice-cream.,As,the,boy,was,eating,the,chocolate,ice-cream,dropped,down,his,clean,shirt.,?,?,?,?,?,?,?
German,132,77,x,Prog_EarlyClosure,x,Did the ice-cream drop down the boy’s pants?,,,,,,,403,264,345,349,224,218,169,369,235,324,188,181,178,350,293,286,401,384,441,404,388,358,0,0,0,0,0,0,0,Aspect,14,,,,,,,In,the,"park,",two,children,were,eating,some,ice-cream.,As,the,boy,was,eating,the,chocolate,ice-cream,dropped,down,his,clean,shirt.,?,?,?,?,?,?,?
German,106,50,x,Simple_EarlyClosure,x,Did the ice-cream drop down the boy’s pants?,,,,,,,,540,520,537,504,486,486,471,461,542,497,1420,618,773,623,677,954,637,1668,1170,686,413,0,0,0,0,0,0,0,Aspect,14,,,,,,,,In,the,"park,",two,children,were,eating,some,ice-cream.,As,the,boy,ate,the,chocolate,ice-cream,dropped,down,his,clean,shirt.,?,?,?,?,?,?,?
German,110,61,x,Simple_EarlyClosure,x,Did the ice-cream drop down the boy’s pants?,,,,,,,,428,347,497,302,522,320,586,753,527,312,203,204,319,235,282,279,248,994,176,245,394,0,0,0,0,0,0,0,Aspect,14,,,,,,,,In,the,"park,",two,children,were,eating,some,ice-cream.,As,the,boy,ate,the,chocolate,ice-cream,dropped,down,his,clean,shirt.,?,?,?,?,?,?,?
German,114,38,x,Simple_EarlyClosure,x,Did the ice-cream drop down the boy’s pants?,,,,,,,,195,186,210,169,353,207,206,211,203,297,234,69,194,338,218,256,255,251,349,312,306,0,0,0,0,0,0,0,Aspect,14,,,,,,,,In,the,"park,",two,children,were,eating,some,ice-cream.,As,the,boy,ate,the,chocolate,ice-cream,dropped,down,his,clean,shirt.,?,?,?,?,?,?,?
German,118,62,x,Simple_EarlyClosure,x,Did the ice-cream drop down the boy’s pants?,,,,,,,,401,332,381,422,424,347,392,403,362,470,392,471,367,406,559,499,432,561,435,403,592,0,0,0,0,0,0,0,Aspect,14,,,,,,,,In,the,"park,",two,children,were,eating,some,ice-cream.,As,the,boy,ate,the,chocolate,ice-cream,dropped,down,his,clean,shirt.,?,?,?,?,?,?,?
German,122,82,x,Simple_EarlyClosure,x,Did the ice-cream drop down the boy’s pants?,,,,,,,,293,160,404,289,197,218,190,227,261,348,405,236,245,175,376,334,295,320,376,449,683,0,0,0,0,0,0,0,Aspect,14,,,,,,,,In,the,"park,",two,children,were,eating,some,ice-cream.,As,the,boy,ate,the,chocolate,ice-cream,dropped,down,his,clean,shirt.,?,?,?,?,?,?,?
German,126,27,m,Simple_EarlyClosure,x,Did the ice-cream drop down the boy’s pants?,,,,,,,,712,389,486,509,515,420,552,1080,2042,665,1188,516,407,342,508,661,415,439,445,1848,3297,0,0,0,0,0,0,0,Aspect,14,,,,,,,,In,the,"park,",two,children,were,eating,some,ice-cream.,As,the,boy,ate,the,chocolate,ice-cream,dropped,down,his,clean,shirt.,?,?,?,?,?,?,?
German,106,46,m,Prog_EarlyClosure,m,Did John and Sam take their guns into the woods?,,,,,,,1641,320,403,474,388,477,452,387,539,477,440,510,481,589,465,711,447,1126,425,463,382,485,0,0,0,0,0,0,0,Aspect,4,,,,,,,John,and,Sam,took,their,guns,out,into,the,woods.,As,John,was,hunting,the,frightened,rabbit,escaped,through,the,dark,trees.,?,?,?,?,?,?,?
German,110,45,m,Prog_EarlyClosure,m,Did John and Sam take their guns into the woods?,,,,,,,584,494,763,389,213,443,331,662,602,281,447,309,253,316,277,233,298,281,621,321,165,363,0,0,0,0,0,0,0,Aspect,4,,,,,,,John,and,Sam,took,their,guns,out,into,the,woods.,As,John,was,hunting,the,frightened,rabbit,escaped,through,the,dark,trees.,?,?,?,?,?,?,?
German,114,68,m,Prog_EarlyClosure,m,Did John and Sam take their guns into the woods?,,,,,,,168,149,198,208,199,104,194,196,212,180,280,233,184,90,342,208,209,192,217,290,249,281,0,0,0,0,0,0,0,Aspect,4,,,,,,,John,and,Sam,took,their,guns,out,into,the,woods.,As,John,was,hunting,the,frightened,rabbit,escaped,through,the,dark,trees.,?,?,?,?,?,?,?
German,118,51,m,Prog_EarlyClosure,m,Did John and Sam take their guns into the woods?,,,,,,,400,332,393,359,309,429,461,484,273,410,359,283,441,253,311,387,445,376,370,395,381,653,0,0,0,0,0,0,0,Aspect,4,,,,,,,John,and,Sam,took,their,guns,out,into,the,woods.,As,John,was,hunting,the,frightened,rabbit,escaped,through,the,dark,trees.,?,?,?,?,?,?,?
German,122,67,m,Prog_EarlyClosure,m,Did John and Sam take their guns into the woods?,,,,,,,821,251,474,374,432,375,162,260,199,177,417,235,195,219,281,369,486,506,592,468,257,216,0,0,0,0,0,0,0,Aspect,4,,,,,,,John,and,Sam,took,their,guns,out,into,the,woods.,As,John,was,hunting,the,frightened,rabbit,escaped,through,the,dark,trees.,?,?,?,?,?,?,?
German,126,57,m,Prog_EarlyClosure,m,Did John and Sam take their guns into the woods?,,,,,,,467,469,357,396,469,693,445,331,285,278,404,287,285,259,354,992,412,491,447,351,608,414,0,0,0,0,0,0,0,Aspect,4,,,,,,,John,and,Sam,took,their,guns,out,into,the,woods.,As,John,was,hunting,the,frightened,rabbit,escaped,through,the,dark,trees.,?,?,?,?,?,?,?
German,112,33,m,Simple_EarlyClosure,m,Did John and Sam take their guns into the woods?,,,,,,,,394,393,437,522,471,651,580,640,500,881,648,464,568,504,678,560,1086,574,453,603,757,0,0,0,0,0,0,0,Aspect,4,,,,,,,,John,and,Sam,took,their,guns,out,into,the,woods.,As,John,hunted,the,frightened,rabbit,escaped,through,the,dark,trees.,?,?,?,?,?,?,?
German,116,16,m,Simple_EarlyClosure,m,Did John and Sam take their guns into the woods?,,,,,,,,366,245,180,229,346,252,240,267,246,272,377,250,196,328,261,479,384,377,337,337,280,0,0,0,0,0,0,0,Aspect,4,,,,,,,,John,and,Sam,took,their,guns,out,into,the,woods.,As,John,hunted,the,frightened,rabbit,escaped,through,the,dark,trees.,?,?,?,?,?,?,?
German,120,77,m,Simple_EarlyClosure,m,Did John and Sam take their guns into the woods?,,,,,,,,222,214,190,211,204,196,213,180,215,188,225,189,226,190,220,225,201,170,220,216,222,0,0,0,0,0,0,0,Aspect,4,,,,,,,,John,and,Sam,took,their,guns,out,into,the,woods.,As,John,hunted,the,frightened,rabbit,escaped,through,the,dark,trees.,?,?,?,?,?,?,?
German,124,17,m,Simple_EarlyClosure,m,Did John and Sam take their guns into the woods?,,,,,,,,731,676,627,994,527,386,289,422,414,984,547,549,429,383,529,374,5155,2632,344,351,716,0,0,0,0,0,0,0,Aspect,4,,,,,,,,John,and,Sam,took,their,guns,out,into,the,woods.,As,John,hunted,the,frightened,rabbit,escaped,through,the,dark,trees.,?,?,?,?,?,?,?
German,128,37,m,Simple_EarlyClosure,m,Did John and Sam take their guns into the woods?,,,,,,,,290,557,305,275,342,320,318,269,322,390,321,384,284,373,385,379,409,363,413,415,247,0,0,0,0,0,0,0,Aspect,4,,,,,,,,John,and,Sam,took,their,guns,out,into,the,woods.,As,John,hunted,the,frightened,rabbit,escaped,through,the,dark,trees.,?,?,?,?,?,?,?
German,132,17,m,Simple_EarlyClosure,m,Did John and Sam take their guns into the woods?,,,,,,,,1638,336,395,394,330,360,412,329,315,312,370,213,238,326,196,363,242,302,437,240,469,0,0,0,0,0,0,0,Aspect,4,,,,,,,,John,and,Sam,took,their,guns,out,into,the,woods.,As,John,hunted,the,frightened,rabbit,escaped,through,the,dark,trees.,?,?,?,?,?,?,?
German,106,53,m,Prog_LateClosure,m,Did the couple want to leave?,,,,435,340,316,395,416,540,506,438,467,456,553,502,594,394,519,564,563,410,585,539,589,530,499,525,493,0,0,0,0,0,0,0,Aspect,7,,,,The,couple,sitting,next,to,me,at,the,restaurant,got,up,to,leave.,As,I,was,watching,the,drunk,man,he,tripped,over,my,chair.,?,?,?,?,?,?,?
German,110,44,m,Prog_LateClosure,m,Did the couple want to leave?,,,,413,317,368,312,421,539,571,200,522,206,288,212,207,578,277,193,374,196,294,291,282,204,344,432,497,0,0,0,0,0,0,0,Aspect,7,,,,The,couple,sitting,next,to,me,at,the,restaurant,got,up,to,leave.,As,I,was,watching,the,drunk,man,he,tripped,over,my,chair.,?,?,?,?,?,?,?
German,114,75,m,Prog_LateClosure,m,Did the couple want to leave?,,,,233,214,145,372,195,251,214,333,214,242,208,283,222,406,275,201,243,164,170,272,58,202,197,362,196,0,0,0,0,0,0,0,Aspect,7,,,,The,couple,sitting,next,to,me,at,the,restaurant,got,up,to,leave.,As,I,was,watching,the,drunk,man,he,tripped,over,my,chair.,?,?,?,?,?,?,?
German,118,40,m,Prog_LateClosure,m,Did the couple want to leave?,,,,405,428,479,549,478,394,543,398,502,571,403,453,557,472,473,396,341,351,349,398,336,399,405,410,707,0,0,0,0,0,0,0,Aspect,7,,,,The,couple,sitting,next,to,me,at,the,restaurant,got,up,to,leave.,As,I,was,watching,the,drunk,man,he,tripped,over,my,chair.,?,?,?,?,?,?,?
German,122,80,m,Prog_LateClosure,m,Did the couple want to leave?,,,,285,145,296,160,228,371,230,196,184,294,258,220,232,396,143,150,358,372,244,220,289,197,299,222,356,0,0,0,0,0,0,0,Aspect,7,,,,The,couple,sitting,next,to,me,at,the,restaurant,got,up,to,leave.,As,I,was,watching,the,drunk,man,he,tripped,over,my,chair.,?,?,?,?,?,?,?
German,126,2,m,Prog_LateClosure,m,Did the couple want to leave?,,,,3140,469,1002,608,491,657,666,505,962,644,702,606,657,610,721,598,640,600,670,802,1527,663,636,839,553,0,0,0,0,0,0,0,Aspect,7,,,,The,couple,sitting,next,to,me,at,the,restaurant,got,up,to,leave.,As,I,was,watching,the,drunk,man,he,tripped,over,my,chair.,?,?,?,?,?,?,?
German,112,52,m,Simple_LateClosure,m,Did the couple want to leave?,,,,,496,552,648,404,439,471,463,347,426,330,329,325,635,377,399,413,392,523,364,343,473,500,404,458,0,0,0,0,0,0,0,Aspect,7,,,,,The,couple,sitting,next,to,me,at,the,restaurant,got,up,to,leave.,As,I,watched,the,drunk,man,he,tripped,over,my,chair.,?,?,?,?,?,?,?
German,116,73,m,Simple_LateClosure,m,Did the couple want to leave?,,,,,124,518,309,110,127,136,151,143,136,346,345,164,160,353,161,140,123,131,134,359,169,150,173,188,0,0,0,0,0,0,0,Aspect,7,,,,,The,couple,sitting,next,to,me,at,the,restaurant,got,up,to,leave.,As,I,watched,the,drunk,man,he,tripped,over,my,chair.,?,?,?,?,?,?,?
German,120,45,x,Simple_LateClosure,m,Did the couple want to leave?,,,,,231,212,257,206,234,242,465,208,225,261,209,222,237,333,254,230,232,236,238,282,226,251,255,270,0,0,0,0,0,0,0,Aspect,7,,,,,The,couple,sitting,next,to,me,at,the,restaurant,got,up,to,leave.,As,I,watched,the,drunk,man,he,tripped,over,my,chair.,?,?,?,?,?,?,?
German,124,57,m,Simple_LateClosure,m,Did the couple want to leave?,,,,,343,645,219,782,351,294,413,454,1336,338,336,525,888,486,277,416,282,383,313,400,808,721,617,711,0,0,0,0,0,0,0,Aspect,7,,,,,The,couple,sitting,next,to,me,at,the,restaurant,got,up,to,leave.,As,I,watched,the,drunk,man,he,tripped,over,my,chair.,?,?,?,?,?,?,?
German,128,73,m,Simple_LateClosure,m,Did the couple want to leave?,,,,,307,415,464,252,219,235,256,275,268,285,483,290,268,304,246,617,276,312,296,294,442,278,321,278,0,0,0,0,0,0,0,Aspect,7,,,,,The,couple,sitting,next,to,me,at,the,restaurant,got,up,to,leave.,As,I,watched,the,drunk,man,he,tripped,over,my,chair.,?,?,?,?,?,?,?
German,132,65,m,Simple_LateClosure,m,Did the couple want to leave?,,,,,557,487,399,318,303,341,431,375,486,238,323,244,566,249,274,197,351,254,199,328,396,318,349,461,0,0,0,0,0,0,0,Aspect,7,,,,,The,couple,sitting,next,to,me,at,the,restaurant,got,up,to,leave.,As,I,watched,the,drunk,man,he,tripped,over,my,chair.,?,?,?,?,?,?,?
German,106,78,x,Prog_LateClosure,x,Did the tree stay steady?,976,455,553,553,596,479,457,493,465,605,542,427,538,469,639,556,428,533,441,422,348,366,415,452,363,371,344,460,0,0,0,0,0,0,0,Aspect,15,In,the,"garden,",a,boy,and,a,girl,wanted,to,go,up,into,the,tree-house.,While,the,girl,was,climbing,the,tall,tree,it,started,to,shake,dangerously.,?,?,?,?,?,?,?
German,110,58,x,Prog_LateClosure,x,Did the tree stay steady?,274,292,470,318,209,298,299,290,336,551,244,276,259,509,890,332,234,215,338,455,289,530,198,301,315,292,294,283,0,0,0,0,0,0,0,Aspect,15,In,the,"garden,",a,boy,and,a,girl,wanted,to,go,up,into,the,tree-house.,While,the,girl,was,climbing,the,tall,tree,it,started,to,shake,dangerously.,?,?,?,?,?,?,?
German,114,12,x,Prog_LateClosure,x,Did the tree stay steady?,274,187,215,242,266,242,245,243,299,197,260,213,235,280,249,391,200,256,255,263,259,272,225,196,278,311,266,317,0,0,0,0,0,0,0,Aspect,15,In,the,"garden,",a,boy,and,a,girl,wanted,to,go,up,into,the,tree-house.,While,the,girl,was,climbing,the,tall,tree,it,started,to,shake,dangerously.,?,?,?,?,?,?,?
German,118,14,x,Prog_LateClosure,x,Did the tree stay steady?,401,404,427,447,775,545,456,558,422,411,481,491,387,388,713,428,411,390,368,344,351,290,437,409,344,393,381,513,0,0,0,0,0,0,0,Aspect,15,In,the,"garden,",a,boy,and,a,girl,wanted,to,go,up,into,the,tree-house.,While,the,girl,was,climbing,the,tall,tree,it,started,to,shake,dangerously.,?,?,?,?,?,?,?
German,122,29,x,Prog_LateClosure,x,Did the tree stay steady?,310,231,225,392,507,200,225,236,311,246,190,254,331,249,188,528,206,186,196,187,273,218,289,344,413,256,176,951,0,0,0,0,0,0,0,Aspect,15,In,the,"garden,",a,boy,and,a,girl,wanted,to,go,up,into,the,tree-house.,While,the,girl,was,climbing,the,tall,tree,it,started,to,shake,dangerously.,?,?,?,?,?,?,?
German,126,12,x,Prog_LateClosure,x,Did the tree stay steady?,350,477,623,416,342,299,564,327,348,374,598,310,375,327,570,491,321,411,368,526,301,258,585,404,405,395,385,351,0,0,0,0,0,0,0,Aspect,15,In,the,"garden,",a,boy,and,a,girl,wanted,to,go,up,into,the,tree-house.,While,the,girl,was,climbing,the,tall,tree,it,started,to,shake,dangerously.,?,?,?,?,?,?,?
German,101,75,x,Prog_LateClosure,x,Was the flat tidy?,,,,,,,,,186,152,150,179,179,166,166,169,160,195,179,188,186,204,225,223,239,183,190,227,0,0,0,,,,,Aspect,6,,,,,,,,,The,flat,was,very,old,and,dirty.,Even,when,Joe,was,cleaning,the,small,kitchen,it,smelled,like,old,rubbish.,?,?,?,?,,,
German,105,62,x,Prog_LateClosure,x,Was the flat tidy?,,,,,,,,,293,268,318,377,328,328,374,314,336,419,324,351,351,367,361,363,351,328,360,364,0,0,0,0,0,0,0,Aspect,6,,,,,,,,,The,flat,was,very,old,and,dirty.,Even,when,Joe,was,cleaning,the,small,kitchen,it,smelled,like,old,rubbish.,?,?,?,?,,,
German,109,78,x,Prog_LateClosure,x,Was the flat tidy?,,,,,,,,,258,240,255,249,237,218,186,197,222,227,234,206,255,197,238,232,245,234,244,206,0,0,0,0,0,0,0,Aspect,6,,,,,,,,,The,flat,was,very,old,and,dirty.,Even,when,Joe,was,cleaning,the,small,kitchen,it,smelled,like,old,rubbish.,?,?,?,?,,,
German,113,43,m,Prog_LateClosure,x,Was the flat tidy?,,,,,,,,,579,1506,612,1031,760,540,645,512,932,1177,544,574,475,527,579,622,463,547,467,500,0,0,0,0,0,0,0,Aspect,6,,,,,,,,,The,flat,was,very,old,and,dirty.,Even,when,Joe,was,cleaning,the,small,kitchen,it,smelled,like,old,rubbish.,?,?,?,?,,,
German,117,51,x,Prog_LateClosure,x,Was the flat tidy?,,,,,,,,,215,238,303,228,274,217,425,247,272,240,278,318,266,313,248,306,398,357,245,474,0,0,0,0,0,0,0,Aspect,6,,,,,,,,,The,flat,was,very,old,and,dirty.,Even,when,Joe,was,cleaning,the,small,kitchen,it,smelled,like,old,rubbish.,?,?,?,?,,,
German,125,10,x,Prog_LateClosure,x,Was the flat tidy?,,,,,,,,,367,427,386,490,367,266,363,442,351,345,383,324,442,386,388,426,421,354,345,411,0,0,0,0,0,0,0,Aspect,6,,,,,,,,,The,flat,was,very,old,and,dirty.,Even,when,Joe,was,cleaning,the,small,kitchen,it,smelled,like,old,rubbish.,?,?,?,?,,,
German,129,56,x,Prog_LateClosure,x,Was the flat tidy?,,,,,,,,,320,352,351,336,378,385,368,627,410,433,563,545,346,351,384,403,455,427,431,925,0,0,0,0,0,0,0,Aspect,6,,,,,,,,,The,flat,was,very,old,and,dirty.,Even,when,Joe,was,cleaning,the,small,kitchen,it,smelled,like,old,rubbish.,?,?,?,?,,,
German,101,23,m,Prog_LateClosure,m,Did the opera company have three different conductors?,,,,,,,,,233,225,210,215,230,224,281,294,211,198,211,210,212,198,240,214,256,248,288,176,463,0,0,,,,,Aspect,10,,,,,,,,,The,opera,company,had,three,different,conductors.,When,Mr.,Osaka,was,conducting,the,symphony,orchestra,it,played,better,than,anyone,else.,?,?,,,,
German,105,46,m,Prog_LateClosure,m,Did the opera company have three different conductors?,,,,,,,,,307,328,376,331,283,332,342,382,483,287,361,321,347,495,368,400,301,353,308,293,297,0,0,0,0,0,0,Aspect,10,,,,,,,,,The,opera,company,had,three,different,conductors.,When,Mr.,Osaka,was,conducting,the,symphony,orchestra,it,played,better,than,anyone,else.,?,?,?,,,
German,109,48,m,Prog_LateClosure,m,Did the opera company have three different conductors?,,,,,,,,,212,168,205,219,185,201,195,215,217,233,211,296,225,246,197,201,310,196,318,221,293,0,0,0,0,0,0,Aspect,10,,,,,,,,,The,opera,company,had,three,different,conductors.,When,Mr.,Osaka,was,conducting,the,symphony,orchestra,it,played,better,than,anyone,else.,?,?,?,,,
German,113,56,m,Prog_LateClosure,m,Did the opera company have three different conductors?,,,,,,,,,449,702,562,828,1233,574,1038,408,782,712,435,494,491,542,550,1025,752,584,594,477,409,0,0,0,0,0,0,Aspect,10,,,,,,,,,The,opera,company,had,three,different,conductors.,When,Mr.,Osaka,was,conducting,the,symphony,orchestra,it,played,better,than,anyone,else.,?,?,?,,,
German,117,23,m,Prog_LateClosure,m,Did the opera company have three different conductors?,,,,,,,,,338,318,362,328,296,399,376,377,409,362,336,382,303,361,490,634,460,405,388,340,359,0,0,0,0,0,0,Aspect,10,,,,,,,,,The,opera,company,had,three,different,conductors.,When,Mr.,Osaka,was,conducting,the,symphony,orchestra,it,played,better,than,anyone,else.,?,?,?,,,
German,125,4,m,Prog_LateClosure,m,Did the opera company have three different conductors?,,,,,,,,,370,892,446,474,1344,529,1065,526,596,840,521,995,539,569,807,506,453,463,409,833,836,0,0,0,0,0,0,Aspect,10,,,,,,,,,The,opera,company,had,three,different,conductors.,When,Mr.,Osaka,was,conducting,the,symphony,orchestra,it,played,better,than,anyone,else.,?,?,?,,,
German,129,3,m,Prog_LateClosure,m,Did the opera company have three different conductors?,,,,,,,,,651,803,661,734,683,683,1180,1372,888,715,768,700,704,667,689,563,720,631,642,702,949,0,0,0,0,0,0,Aspect,10,,,,,,,,,The,opera,company,had,three,different,conductors.,When,Mr.,Osaka,was,conducting,the,symphony,orchestra,it,played,better,than,anyone,else.,?,?,?,,,
German,103,52,x,Prog_LateClosure,x,Were there three Italian chefs working at the restaurant?,,,,,,,,355,292,346,350,356,355,281,308,399,357,356,483,315,291,387,325,364,278,355,382,381,559,0,0,0,0,0,0,Aspect,8,,,,,,,,There,were,two,Italian,chefs,working,in,the,restaurant.,Because,Mario,was,cooking,the,fresh,pasta,it,was,made,to,real,perfection.,?,?,?,,,
German,111,72,m,Prog_LateClosure,x,Were there three Italian chefs working at the restaurant?,,,,,,,,650,409,367,587,295,607,703,336,343,326,294,295,240,288,306,306,296,287,305,321,290,732,0,0,0,0,0,0,Aspect,8,,,,,,,,There,were,two,Italian,chefs,working,in,the,restaurant.,Because,Mario,was,cooking,the,fresh,pasta,it,was,made,to,real,perfection.,?,?,?,,,
German,115,69,x,Prog_LateClosure,x,Were there three Italian chefs working at the restaurant?,,,,,,,,512,449,383,570,462,645,361,346,725,560,330,486,430,494,413,551,854,370,379,566,784,1379,0,0,0,0,0,0,Aspect,8,,,,,,,,There,were,two,Italian,chefs,working,in,the,restaurant.,Because,Mario,was,cooking,the,fresh,pasta,it,was,made,to,real,perfection.,?,?,?,,,
German,119,26,x,Prog_LateClosure,x,Were there three Italian chefs working at the restaurant?,,,,,,,,393,282,268,311,279,320,282,293,365,50,827,358,328,351,279,316,336,549,268,275,288,472,0,0,0,0,0,0,Aspect,8,,,,,,,,There,were,two,Italian,chefs,working,in,the,restaurant.,Because,Mario,was,cooking,the,fresh,pasta,it,was,made,to,real,perfection.,?,?,?,,,
German,127,66,m,Prog_LateClosure,x,Were there three Italian chefs working at the restaurant?,,,,,,,,435,358,328,385,366,398,375,369,277,392,411,393,313,385,400,359,461,374,333,354,349,715,0,0,0,0,0,0,Aspect,8,,,,,,,,There,were,two,Italian,chefs,working,in,the,restaurant.,Because,Mario,was,cooking,the,fresh,pasta,it,was,made,to,real,perfection.,?,?,?,,,
German,112,37,m,Prog_LateClosure,x,Was the bar full?,,,,,,,,325,534,359,339,306,447,428,539,402,363,362,641,387,474,622,429,463,393,437,366,476,544,0,0,0,0,0,0,Aspect,1,,,,,,,,It,was,late,and,the,bar,was,full.,As,the,men,were,drinking,the,strong,beer,it,was,spilled,on,the,floor.,?,?,?,,,
German,116,43,m,Prog_LateClosure,x,Was the bar full?,,,,,,,,382,129,366,189,177,243,336,209,199,390,230,150,358,171,205,199,186,213,179,322,231,195,0,0,0,0,0,0,Aspect,1,,,,,,,,It,was,late,and,the,bar,was,full.,As,the,men,were,drinking,the,strong,beer,it,was,spilled,on,the,floor.,?,?,?,,,
German,120,42,m,Prog_LateClosure,x,Was the bar full?,,,,,,,,192,247,212,196,229,216,226,198,229,453,216,247,255,281,220,234,290,246,406,256,273,252,0,0,0,0,0,0,Aspect,1,,,,,,,,It,was,late,and,the,bar,was,full.,As,the,men,were,drinking,the,strong,beer,it,was,spilled,on,the,floor.,?,?,?,,,
German,124,27,m,Prog_LateClosure,x,Was the bar full?,,,,,,,,338,285,536,465,546,325,339,1019,298,544,461,822,857,531,325,421,692,349,689,444,353,472,0,0,0,0,0,0,Aspect,1,,,,,,,,It,was,late,and,the,bar,was,full.,As,the,men,were,drinking,the,strong,beer,it,was,spilled,on,the,floor.,?,?,?,,,
German,128,10,m,Prog_LateClosure,x,Was the bar full?,,,,,,,,415,301,332,690,359,452,419,443,352,697,289,349,339,307,338,381,384,301,473,402,354,526,0,0,0,0,0,0,Aspect,1,,,,,,,,It,was,late,and,the,bar,was,full.,As,the,men,were,drinking,the,strong,beer,it,was,spilled,on,the,floor.,?,?,?,,,
German,132,18,m,Prog_LateClosure,x,Was the bar full?,,,,,,,,388,541,358,379,291,599,506,1033,371,156,359,351,392,400,309,290,398,327,314,390,328,301,0,0,0,0,0,0,Aspect,1,,,,,,,,It,was,late,and,the,bar,was,full.,As,the,men,were,drinking,the,strong,beer,it,was,spilled,on,the,floor.,?,?,?,,,
German,112,79,m,Prog_LateClosure,m,Were there different kinds of vehicles at the company?,,,,,,,460,390,395,417,423,339,577,347,436,485,558,446,453,413,390,544,429,453,455,449,412,447,509,0,0,0,0,0,0,Aspect,9,,,,,,,There,were,many,different,kinds,of,vehicles,at,the,company.,When,George,was,driving,the,big,lorry,it,made,loud,and,strange,noises.,?,?,?,,,
German,116,10,m,Prog_LateClosure,m,Were there different kinds of vehicles at the company?,,,,,,,557,153,1016,425,251,214,414,291,247,470,333,233,221,250,316,226,290,341,274,232,239,280,267,0,0,0,0,0,0,Aspect,9,,,,,,,There,were,many,different,kinds,of,vehicles,at,the,company.,When,George,was,driving,the,big,lorry,it,made,loud,and,strange,noises.,?,?,?,,,
German,120,15,x,Prog_LateClosure,m,Were there different kinds of vehicles at the company?,,,,,,,302,356,296,297,297,353,272,373,322,325,341,343,335,332,320,312,338,316,359,327,296,298,381,0,0,0,0,0,0,Aspect,9,,,,,,,There,were,many,different,kinds,of,vehicles,at,the,company.,When,George,was,driving,the,big,lorry,it,made,loud,and,strange,noises.,?,?,?,,,
German,124,56,m,Prog_LateClosure,m,Were there different kinds of vehicles at the company?,,,,,,,215,373,411,498,262,428,365,503,455,791,538,198,371,266,330,266,401,481,394,353,343,368,281,0,0,0,0,0,0,Aspect,9,,,,,,,There,were,many,different,kinds,of,vehicles,at,the,company.,When,George,was,driving,the,big,lorry,it,made,loud,and,strange,noises.,?,?,?,,,
German,128,41,x,Prog_LateClosure,m,Were there different kinds of vehicles at the company?,,,,,,,274,323,299,334,291,441,275,304,511,299,382,264,424,322,371,353,370,330,293,318,332,326,325,0,0,0,0,0,0,Aspect,9,,,,,,,There,were,many,different,kinds,of,vehicles,at,the,company.,When,George,was,driving,the,big,lorry,it,made,loud,and,strange,noises.,?,?,?,,,
German,132,54,m,Prog_LateClosure,m,Were there different kinds of vehicles at the company?,,,,,,,313,222,193,252,394,211,238,295,285,297,349,219,236,330,311,287,226,309,299,323,375,589,436,0,0,0,0,0,0,Aspect,9,,,,,,,There,were,many,different,kinds,of,vehicles,at,the,company.,When,George,was,driving,the,big,lorry,it,made,loud,and,strange,noises.,?,?,?,,,
German,101,24,x,Prog_LateClosure,x,Did the ice-cream drop down the boy’s pants?,,,,,,,353,202,386,192,141,347,239,363,146,266,244,211,178,182,293,194,208,215,197,178,190,203,240,,,,,,,Aspect,14,,,,,,,In,the,"park,",two,children,were,eating,some,ice-cream.,As,the,boy,was,eating,the,chocolate,ice-cream,it,dropped,down,his,clean,shirt.,,,,,,
German,105,51,x,Prog_LateClosure,x,Did the ice-cream drop down the boy’s pants?,,,,,,,328,328,350,360,289,326,306,317,313,317,308,291,310,328,323,310,314,324,301,404,316,279,338,0,0,0,0,0,0,Aspect,14,,,,,,,In,the,"park,",two,children,were,eating,some,ice-cream.,As,the,boy,was,eating,the,chocolate,ice-cream,it,dropped,down,his,clean,shirt.,?,?,?,,,
German,109,28,x,Prog_LateClosure,x,Did the ice-cream drop down the boy’s pants?,,,,,,,253,263,186,327,234,310,283,261,286,315,311,286,267,273,235,289,284,316,260,296,294,273,297,0,0,0,0,0,0,Aspect,14,,,,,,,In,the,"park,",two,children,were,eating,some,ice-cream.,As,the,boy,was,eating,the,chocolate,ice-cream,it,dropped,down,his,clean,shirt.,?,?,?,,,
German,113,27,x,Prog_LateClosure,x,Did the ice-cream drop down the boy’s pants?,,,,,,,798,729,893,667,605,683,713,637,731,784,686,702,595,1254,641,665,773,768,643,698,559,574,575,0,0,0,0,0,0,Aspect,14,,,,,,,In,the,"park,",two,children,were,eating,some,ice-cream.,As,the,boy,was,eating,the,chocolate,ice-cream,it,dropped,down,his,clean,shirt.,?,?,?,,,
German,117,35,x,Prog_LateClosure,x,Did the ice-cream drop down the boy’s pants?,,,,,,,277,261,287,261,300,244,284,275,530,328,272,261,254,287,293,293,269,316,310,289,283,455,323,0,0,0,0,0,0,Aspect,14,,,,,,,In,the,"park,",two,children,were,eating,some,ice-cream.,As,the,boy,was,eating,the,chocolate,ice-cream,it,dropped,down,his,clean,shirt.,?,?,?,,,
German,125,79,x,Prog_LateClosure,x,Did the ice-cream drop down the boy’s pants?,,,,,,,402,396,362,352,369,365,333,361,398,443,346,358,382,392,352,453,503,546,439,369,421,438,370,0,0,0,0,0,0,Aspect,14,,,,,,,In,the,"park,",two,children,were,eating,some,ice-cream.,As,the,boy,was,eating,the,chocolate,ice-cream,it,dropped,down,his,clean,shirt.,?,?,?,,,
German,129,34,x,Prog_LateClosure,x,Did the ice-cream drop down the boy’s pants?,,,,,,,384,396,405,609,349,350,703,518,371,893,540,446,507,685,467,721,582,491,446,391,423,399,573,0,0,0,0,0,0,Aspect,14,,,,,,,In,the,"park,",two,children,were,eating,some,ice-cream.,As,the,boy,was,eating,the,chocolate,ice-cream,it,dropped,down,his,clean,shirt.,?,?,?,,,
German,103,13,m,Prog_LateClosure,m,Did John and Sam take their guns into the woods?,,,,,,,425,324,358,334,334,375,402,436,408,412,637,393,405,505,499,786,434,1236,508,770,677,471,942,0,0,0,0,0,0,Aspect,4,,,,,,,John,and,Sam,took,their,guns,out,into,the,woods.,As,John,was,hunting,the,frightened,rabbit,it,escaped,through,the,dark,trees.,?,?,?,,,
German,111,51,m,Prog_LateClosure,m,Did John and Sam take their guns into the woods?,,,,,,,325,245,347,286,294,285,314,312,272,293,476,309,268,393,324,278,420,419,246,358,369,481,281,0,0,0,0,0,0,Aspect,4,,,,,,,John,and,Sam,took,their,guns,out,into,the,woods.,As,John,was,hunting,the,frightened,rabbit,it,escaped,through,the,dark,trees.,?,?,?,,,
German,115,4,m,Prog_LateClosure,m,Did John and Sam take their guns into the woods?,,,,,,,500,439,771,648,352,367,494,803,395,1960,465,913,587,2090,506,810,786,803,675,622,587,642,983,0,0,0,0,0,0,Aspect,4,,,,,,,John,and,Sam,took,their,guns,out,into,the,woods.,As,John,was,hunting,the,frightened,rabbit,it,escaped,through,the,dark,trees.,?,?,?,,,
German,119,75,m,Prog_LateClosure,m,Did John and Sam take their guns into the woods?,,,,,,,345,322,321,321,325,309,370,257,314,384,330,338,292,314,303,347,546,326,339,299,336,320,316,0,0,0,0,0,0,Aspect,4,,,,,,,John,and,Sam,took,their,guns,out,into,the,woods.,As,John,was,hunting,the,frightened,rabbit,it,escaped,through,the,dark,trees.,?,?,?,,,
German,127,20,m,Prog_LateClosure,m,Did John and Sam take their guns into the woods?,,,,,,,409,442,372,355,367,412,333,386,339,395,389,427,362,365,377,457,556,400,516,636,476,460,448,0,0,0,0,0,0,Aspect,4,,,,,,,John,and,Sam,took,their,guns,out,into,the,woods.,As,John,was,hunting,the,frightened,rabbit,it,escaped,through,the,dark,trees.,?,?,?,,,
German,103,63,x,Prog_LateClosure,x,Did Mrs. Brown park well?,,,,,,,10,1128,651,368,335,358,320,324,363,370,451,388,388,436,359,415,372,383,524,299,565,256,460,0,0,0,0,0,0,Aspect,20,,,,,,,The,driving,instructor,almost,gave,up,on,Mrs.,Brown.,When,the,woman,was,parking,the,new,car,it,was,always,at,an,angle.,?,?,?,,,
German,111,80,x,Prog_LateClosure,x,Did Mrs. Brown park well?,,,,,,,382,260,470,331,276,275,254,380,376,202,302,368,474,306,333,367,332,420,354,289,316,293,500,0,0,0,0,0,0,Aspect,20,,,,,,,The,driving,instructor,almost,gave,up,on,Mrs.,Brown.,When,the,woman,was,parking,the,new,car,it,was,always,at,an,angle.,?,?,?,,,
German,115,42,x,Prog_LateClosure,x,Did Mrs. Brown park well?,,,,,,,505,545,467,467,442,416,396,371,385,596,340,402,414,345,436,383,386,446,426,395,377,411,2259,0,0,0,0,0,0,Aspect,20,,,,,,,The,driving,instructor,almost,gave,up,on,Mrs.,Brown.,When,the,woman,was,parking,the,new,car,it,was,always,at,an,angle.,?,?,?,,,
German,119,33,x,Prog_LateClosure,x,Did Mrs. Brown park well?,,,,,,,319,248,517,308,252,268,249,263,349,311,317,376,271,496,362,1231,321,340,533,359,275,354,659,0,0,0,0,0,0,Aspect,20,,,,,,,The,driving,instructor,almost,gave,up,on,Mrs.,Brown.,When,the,woman,was,parking,the,new,car,it,was,always,at,an,angle.,?,?,?,,,
German,127,83,x,Prog_LateClosure,x,Did Mrs. Brown park well?,,,,,,,314,404,377,1119,369,317,325,431,361,424,344,361,348,417,252,444,326,421,424,335,386,303,418,0,0,0,0,0,0,Aspect,20,,,,,,,The,driving,instructor,almost,gave,up,on,Mrs.,Brown.,When,the,woman,was,parking,the,new,car,it,was,always,at,an,angle.,?,?,?,,,
German,106,49,m,Prog_LateClosure,m,Was the town safe?,,,,,,,485,437,623,533,592,539,921,494,402,579,586,511,585,512,438,424,497,492,528,576,491,647,0,0,0,0,0,0,0,Aspect,11,,,,,,,On,Saturday,"nights,",the,police,department,was,very,busy.,When,the,sheriff,was,patrolling,the,whole,town,it,was,safe,and,secure.,?,?,?,?,,,
German,110,65,m,Prog_LateClosure,m,Was the town safe?,,,,,,,362,255,358,405,372,243,416,191,564,707,269,589,175,495,696,375,207,515,318,332,289,338,0,0,0,0,0,0,0,Aspect,11,,,,,,,On,Saturday,"nights,",the,police,department,was,very,busy.,When,the,sheriff,was,patrolling,the,whole,town,it,was,safe,and,secure.,?,?,?,?,,,
German,114,22,m,Prog_LateClosure,m,Was the town safe?,,,,,,,319,200,156,205,205,199,188,218,212,206,184,208,233,205,192,267,207,289,202,255,307,258,0,0,0,0,0,0,0,Aspect,11,,,,,,,On,Saturday,"nights,",the,police,department,was,very,busy.,When,the,sheriff,was,patrolling,the,whole,town,it,was,safe,and,secure.,?,?,?,?,,,
German,118,39,m,Prog_LateClosure,m,Was the town safe?,,,,,,,358,465,396,408,355,356,416,469,362,387,341,355,382,395,392,373,360,317,362,424,537,674,0,0,0,0,0,0,0,Aspect,11,,,,,,,On,Saturday,"nights,",the,police,department,was,very,busy.,When,the,sheriff,was,patrolling,the,whole,town,it,was,safe,and,secure.,?,?,?,?,,,
German,122,1,m,Prog_LateClosure,m,Was the town safe?,,,,,,,454,470,340,303,428,350,335,221,547,485,450,536,307,357,311,286,327,340,461,313,342,608,0,0,0,0,0,0,0,Aspect,11,,,,,,,On,Saturday,"nights,",the,police,department,was,very,busy.,When,the,sheriff,was,patrolling,the,whole,town,it,was,safe,and,secure.,?,?,?,?,,,
German,126,17,m,Prog_LateClosure,m,Was the town safe?,,,,,,,375,424,442,493,755,578,604,422,573,938,452,583,431,766,393,359,521,374,434,496,472,539,0,0,0,0,0,0,0,Aspect,11,,,,,,,On,Saturday,"nights,",the,police,department,was,very,busy.,When,the,sheriff,was,patrolling,the,whole,town,it,was,safe,and,secure.,?,?,?,?,,,
German,103,84,m,Prog_LateClosure,m,Did the furniture look expensive?,,,,,,,,252,215,253,301,230,234,210,672,234,363,262,251,234,270,283,246,407,223,326,295,264,0,0,0,0,0,0,0,Aspect,16,,,,,,,,Sarah,and,Jane,owned,a,shop,selling,old,furniture.,When,Sarah,was,polishing,the,cheap,furniture,it,looked,new,and,expensive.,?,?,?,?,,,
German,111,34,m,Prog_LateClosure,m,Did the furniture look expensive?,,,,,,,,300,311,428,306,420,295,402,609,463,415,375,254,300,422,323,309,452,229,357,343,257,0,0,0,0,0,0,0,Aspect,16,,,,,,,,Sarah,and,Jane,owned,a,shop,selling,old,furniture.,When,Sarah,was,polishing,the,cheap,furniture,it,looked,new,and,expensive.,?,?,?,?,,,
German,115,14,m,Prog_LateClosure,m,Did the furniture look expensive?,,,,,,,,734,318,320,493,456,661,1351,412,2194,295,492,394,938,463,329,525,655,431,647,601,2205,0,0,0,0,0,0,0,Aspect,16,,,,,,,,Sarah,and,Jane,owned,a,shop,selling,old,furniture.,When,Sarah,was,polishing,the,cheap,furniture,it,looked,new,and,expensive.,?,?,?,?,,,
German,119,72,m,Prog_LateClosure,m,Did the furniture look expensive?,,,,,,,,337,239,250,541,430,268,324,328,341,872,413,262,267,392,320,369,306,422,268,347,330,0,0,0,0,0,0,0,Aspect,16,,,,,,,,Sarah,and,Jane,owned,a,shop,selling,old,furniture.,When,Sarah,was,polishing,the,cheap,furniture,it,looked,new,and,expensive.,?,?,?,?,,,
German,127,62,m,Prog_LateClosure,m,Did the furniture look expensive?,,,,,,,,323,360,337,369,417,370,293,377,466,438,363,642,365,592,344,414,404,357,369,394,418,0,0,0,0,0,0,0,Aspect,16,,,,,,,,Sarah,and,Jane,owned,a,shop,selling,old,furniture.,When,Sarah,was,polishing,the,cheap,furniture,it,looked,new,and,expensive.,?,?,?,?,,,
German,103,3,m,Prog_LateClosure,m,Did the horse jump a fence?,,,,,,,,,732,474,388,338,448,435,507,457,477,405,415,463,411,483,512,550,885,747,406,502,686,526,0,0,0,0,0,Aspect,12,,,,,,,,,Jenny,and,Sam,went,out,for,a,ride.,While,Jenny,was,riding,the,young,horse,it,decided,to,jump,a,high,fence.,?,?,,,
German,111,39,m,Prog_LateClosure,m,Did the horse jump a fence?,,,,,,,,,504,253,382,346,297,363,509,355,349,380,253,302,307,302,305,788,478,308,1105,307,505,297,0,0,0,0,0,Aspect,12,,,,,,,,,Jenny,and,Sam,went,out,for,a,ride.,While,Jenny,was,riding,the,young,horse,it,decided,to,jump,a,high,fence.,?,?,,,
German,115,60,m,Prog_LateClosure,m,Did the horse jump a fence?,,,,,,,,,461,333,381,442,370,439,692,1010,468,395,370,418,404,653,676,823,442,411,476,445,483,823,0,0,0,0,0,Aspect,12,,,,,,,,,Jenny,and,Sam,went,out,for,a,ride.,While,Jenny,was,riding,the,young,horse,it,decided,to,jump,a,high,fence.,?,?,,,
German,119,23,m,Prog_LateClosure,m,Did the horse jump a fence?,,,,,,,,,389,276,244,503,285,304,238,304,545,294,278,262,275,1210,351,411,561,340,342,421,363,316,0,0,0,0,0,Aspect,12,,,,,,,,,Jenny,and,Sam,went,out,for,a,ride.,While,Jenny,was,riding,the,young,horse,it,decided,to,jump,a,high,fence.,?,?,,,
German,127,65,m,Prog_LateClosure,m,Did the horse jump a fence?,,,,,,,,,312,339,336,338,377,334,349,352,408,369,380,341,353,355,345,377,677,2015,361,299,287,342,0,0,0,0,0,Aspect,12,,,,,,,,,Jenny,and,Sam,went,out,for,a,ride.,While,Jenny,was,riding,the,young,horse,it,decided,to,jump,a,high,fence.,?,?,,,
German,106,9,x,Prog_LateClosure,x,Did Tony hate to sing at parties?,,,,,,,,536,474,375,517,456,449,642,590,731,582,566,585,630,671,1250,787,712,669,535,648,0,0,0,0,0,0,0,0,Aspect,3,,,,,,,,Tony,and,his,friends,loved,to,sing,at,parties.,When,Tony,was,singing,the,drinking,song,it,sounded,like,opera.,?,?,?,?,?,,,
German,110,27,x,Prog_LateClosure,x,Did Tony hate to sing at parties?,,,,,,,,340,293,272,346,372,328,277,750,342,1233,329,315,391,297,319,791,266,278,1101,279,0,0,0,0,0,0,0,0,Aspect,3,,,,,,,,Tony,and,his,friends,loved,to,sing,at,parties.,When,Tony,was,singing,the,drinking,song,it,sounded,like,opera.,?,?,?,?,?,,,
German,114,30,x,Prog_LateClosure,x,Did Tony hate to sing at parties?,,,,,,,,192,156,192,139,171,164,164,195,204,159,215,276,219,218,196,203,304,305,289,195,0,0,0,0,0,0,0,0,Aspect,3,,,,,,,,Tony,and,his,friends,loved,to,sing,at,parties.,When,Tony,was,singing,the,drinking,song,it,sounded,like,opera.,?,?,?,?,?,,,
German,118,63,x,Prog_LateClosure,x,Did Tony hate to sing at parties?,,,,,,,,518,397,467,402,433,469,528,328,488,440,389,354,356,361,393,422,1188,516,383,499,0,0,0,0,0,0,0,0,Aspect,3,,,,,,,,Tony,and,his,friends,loved,to,sing,at,parties.,When,Tony,was,singing,the,drinking,song,it,sounded,like,opera.,?,?,?,?,?,,,
German,122,74,x,Prog_LateClosure,x,Did Tony hate to sing at parties?,,,,,,,,161,179,266,177,226,242,231,208,203,198,207,263,286,200,189,256,225,297,252,227,0,0,0,0,0,0,0,0,Aspect,3,,,,,,,,Tony,and,his,friends,loved,to,sing,at,parties.,When,Tony,was,singing,the,drinking,song,it,sounded,like,opera.,?,?,?,?,?,,,
German,126,41,x,Prog_LateClosure,x,Did Tony hate to sing at parties?,,,,,,,,315,289,279,356,280,296,329,290,284,340,286,289,301,442,283,306,300,413,289,298,0,0,0,0,0,0,0,0,Aspect,3,,,,,,,,Tony,and,his,friends,loved,to,sing,at,parties.,When,Tony,was,singing,the,drinking,song,it,sounded,like,opera.,?,?,?,?,?,,,
German,101,14,m,Prog_LateClosure,m,Was the eviction notice canceled?,,,,,,,,,,266,219,358,194,229,224,277,224,191,174,197,187,182,202,269,321,251,205,228,0,,,,,,,Aspect,18,,,,,,,,,,The,lawyers’,office,was,rather,busy.,As,the,secretary,was,typing,the,eviction,notice,it,was,canceled,very,suddenly.,,,,,,,
German,105,69,m,Prog_LateClosure,m,Was the eviction notice canceled?,,,,,,,,,,422,397,367,332,378,440,435,389,332,369,298,334,418,1361,671,384,488,390,414,0,0,0,0,0,0,0,Aspect,18,,,,,,,,,,The,lawyers’,office,was,rather,busy.,As,the,secretary,was,typing,the,eviction,notice,it,was,canceled,very,suddenly.,?,?,?,?,,,
German,109,10,m,Prog_LateClosure,m,Was the eviction notice canceled?,,,,,,,,,,255,400,330,260,289,242,273,254,273,263,280,292,267,296,333,296,262,266,323,0,0,0,0,0,0,0,Aspect,18,,,,,,,,,,The,lawyers’,office,was,rather,busy.,As,the,secretary,was,typing,the,eviction,notice,it,was,canceled,very,suddenly.,?,?,?,?,,,
German,113,73,m,Prog_LateClosure,m,Was the eviction notice canceled?,,,,,,,,,,738,902,984,851,1086,681,741,476,576,621,428,448,567,621,512,579,532,427,506,0,0,0,0,0,0,0,Aspect,18,,,,,,,,,,The,lawyers’,office,was,rather,busy.,As,the,secretary,was,typing,the,eviction,notice,it,was,canceled,very,suddenly.,?,?,?,?,,,
German,117,43,m,Prog_LateClosure,m,Was the eviction notice canceled?,,,,,,,,,,300,248,616,247,256,245,264,268,230,235,270,337,285,250,312,287,291,277,309,0,0,0,0,0,0,0,Aspect,18,,,,,,,,,,The,lawyers’,office,was,rather,busy.,As,the,secretary,was,typing,the,eviction,notice,it,was,canceled,very,suddenly.,?,?,?,?,,,
German,125,11,m,Prog_LateClosure,m,Was the eviction notice canceled?,,,,,,,,,,864,797,408,388,321,860,876,501,989,590,533,435,470,570,1145,588,563,517,692,0,0,0,0,0,0,0,Aspect,18,,,,,,,,,,The,lawyers’,office,was,rather,busy.,As,the,secretary,was,typing,the,eviction,notice,it,was,canceled,very,suddenly.,?,?,?,?,,,
German,129,82,m,Prog_LateClosure,m,Was the eviction notice canceled?,,,,,,,,,,600,356,558,383,555,405,458,344,366,377,576,410,676,404,432,415,401,519,855,0,0,0,0,0,0,0,Aspect,18,,,,,,,,,,The,lawyers’,office,was,rather,busy.,As,the,secretary,was,typing,the,eviction,notice,it,was,canceled,very,suddenly.,?,?,?,?,,,
German,112,12,x,Simple_LateClosure,x,Did the tree stay steady?,,653,458,438,425,559,569,399,468,532,657,582,610,582,622,1076,857,693,584,501,524,664,843,982,567,561,445,728,0,0,0,0,0,0,0,Aspect,15,,In,the,"garden,",a,boy,and,a,girl,wanted,to,go,up,into,the,tree-house.,While,the,girl,climbed,the,tall,tree,it,started,to,shake,dangerously.,?,?,?,?,?,?,?
German,116,84,x,Simple_LateClosure,x,Did the tree stay steady?,,160,149,132,585,140,203,270,387,223,344,221,399,182,364,218,851,207,157,178,346,168,159,165,446,167,386,200,0,0,0,0,0,0,0,Aspect,15,,In,the,"garden,",a,boy,and,a,girl,wanted,to,go,up,into,the,tree-house.,While,the,girl,climbed,the,tall,tree,it,started,to,shake,dangerously.,?,?,?,?,?,?,?
German,120,30,x,Simple_LateClosure,x,Did the tree stay steady?,,315,265,250,255,266,302,249,242,318,276,260,289,280,265,325,840,263,245,333,290,257,285,284,267,272,276,244,0,0,0,0,0,0,0,Aspect,15,,In,the,"garden,",a,boy,and,a,girl,wanted,to,go,up,into,the,tree-house.,While,the,girl,climbed,the,tall,tree,it,started,to,shake,dangerously.,?,?,?,?,?,?,?
German,124,36,x,Simple_LateClosure,x,Did the tree stay steady?,,505,495,246,415,751,529,514,466,528,327,503,333,380,489,1253,1181,208,352,299,396,303,487,529,668,260,347,910,0,0,0,0,0,0,0,Aspect,15,,In,the,"garden,",a,boy,and,a,girl,wanted,to,go,up,into,the,tree-house.,While,the,girl,climbed,the,tall,tree,it,started,to,shake,dangerously.,?,?,?,?,?,?,?
German,128,9,x,Simple_LateClosure,x,Did the tree stay steady?,,439,360,391,365,334,374,317,313,348,331,305,321,377,359,502,437,377,389,521,866,340,644,375,413,379,548,396,0,0,0,0,0,0,0,Aspect,15,,In,the,"garden,",a,boy,and,a,girl,wanted,to,go,up,into,the,tree-house.,While,the,girl,climbed,the,tall,tree,it,started,to,shake,dangerously.,?,?,?,?,?,?,?
German,132,22,x,Simple_LateClosure,x,Did the tree stay steady?,,484,503,525,620,468,340,210,452,156,440,586,401,1162,470,816,495,206,290,191,367,316,307,308,311,518,470,817,0,0,0,0,0,0,0,Aspect,15,,In,the,"garden,",a,boy,and,a,girl,wanted,to,go,up,into,the,tree-house.,While,the,girl,climbed,the,tall,tree,it,started,to,shake,dangerously.,?,?,?,?,?,?,?
German,103,4,x,Simple_LateClosure,x,Did the ice-cream drop down the boy’s pants?,,,,,,,,396,442,575,349,440,530,358,500,434,464,589,509,532,508,658,547,630,506,446,554,404,473,0,0,0,0,0,0,Aspect,14,,,,,,,,In,the,"park,",two,children,were,eating,some,ice-cream.,As,the,boy,ate,the,chocolate,ice-cream,it,dropped,down,his,clean,shirt.,?,?,?,,,
German,111,42,x,Simple_LateClosure,x,Did the ice-cream drop down the boy’s pants?,,,,,,,,351,364,626,409,282,333,301,318,285,427,362,398,292,221,638,296,411,511,255,422,475,347,0,0,0,0,0,0,Aspect,14,,,,,,,,In,the,"park,",two,children,were,eating,some,ice-cream.,As,the,boy,ate,the,chocolate,ice-cream,it,dropped,down,his,clean,shirt.,?,?,?,,,
German,115,74,x,Simple_LateClosure,x,Did the ice-cream drop down the boy’s pants?,,,,,,,,392,522,243,710,488,379,352,728,1248,517,344,406,483,429,565,557,874,590,391,421,533,861,0,0,0,0,0,0,Aspect,14,,,,,,,,In,the,"park,",two,children,were,eating,some,ice-cream.,As,the,boy,ate,the,chocolate,ice-cream,it,dropped,down,his,clean,shirt.,?,?,?,,,
German,119,1,x,Simple_LateClosure,x,Did the ice-cream drop down the boy’s pants?,,,,,,,,674,329,354,326,450,365,324,353,441,653,375,368,363,405,483,499,817,488,336,305,338,504,0,0,0,0,0,0,Aspect,14,,,,,,,,In,the,"park,",two,children,were,eating,some,ice-cream.,As,the,boy,ate,the,chocolate,ice-cream,it,dropped,down,his,clean,shirt.,?,?,?,,,
German,127,69,x,Simple_LateClosure,x,Did the ice-cream drop down the boy’s pants?,,,,,,,,540,354,271,390,347,404,432,356,342,389,325,301,325,337,349,445,369,331,377,307,312,330,0,0,0,0,0,0,Aspect,14,,,,,,,,In,the,"park,",two,children,were,eating,some,ice-cream.,As,the,boy,ate,the,chocolate,ice-cream,it,dropped,down,his,clean,shirt.,?,?,?,,,
German,103,28,x,Simple_LateClosure,x,Was the flat tidy?,,,,,,,,,,544,375,366,378,381,451,364,460,355,504,342,403,378,420,483,381,392,388,395,0,0,0,0,0,0,0,Aspect,6,,,,,,,,,,The,flat,was,very,old,and,dirty.,Even,when,Joe,cleaned,the,small,kitchen,it,smelled,like,old,rubbish.,?,?,?,?,,,
German,111,73,x,Simple_LateClosure,x,Was the flat tidy?,,,,,,,,,,247,254,358,305,290,230,269,333,307,285,493,304,333,334,378,483,243,284,320,0,0,0,0,0,0,0,Aspect,6,,,,,,,,,,The,flat,was,very,old,and,dirty.,Even,when,Joe,cleaned,the,small,kitchen,it,smelled,like,old,rubbish.,?,?,?,?,,,
German,115,1,x,Simple_LateClosure,x,Was the flat tidy?,,,,,,,,,,440,393,591,431,443,507,1021,1828,501,501,815,1032,829,1800,395,515,650,364,2217,0,0,0,0,0,0,0,Aspect,6,,,,,,,,,,The,flat,was,very,old,and,dirty.,Even,when,Joe,cleaned,the,small,kitchen,it,smelled,like,old,rubbish.,?,?,?,?,,,
German,119,18,x,Simple_LateClosure,x,Was the flat tidy?,,,,,,,,,,277,312,334,265,300,846,246,316,295,291,564,323,458,383,344,367,365,272,367,0,0,0,0,0,0,0,Aspect,6,,,,,,,,,,The,flat,was,very,old,and,dirty.,Even,when,Joe,cleaned,the,small,kitchen,it,smelled,like,old,rubbish.,?,?,?,?,,,
German,127,51,x,Simple_LateClosure,x,Was the flat tidy?,,,,,,,,,,347,497,513,554,733,463,917,774,304,381,565,400,422,425,409,397,578,307,343,0,0,0,0,0,0,0,Aspect,6,,,,,,,,,,The,flat,was,very,old,and,dirty.,Even,when,Joe,cleaned,the,small,kitchen,it,smelled,like,old,rubbish.,?,?,?,?,,,
German,103,77,m,Simple_LateClosure,m,Did the opera company have three different conductors?,,,,,,,,,,357,250,310,268,259,319,257,636,242,385,395,724,273,378,336,274,319,303,305,342,0,0,0,0,0,0,Aspect,10,,,,,,,,,,The,opera,company,had,three,different,conductors.,When,Mr.,Osaka,conducted,the,symphony,orchestra,it,played,better,than,anyone,else.,?,?,?,,,
German,111,64,x,Simple_LateClosure,m,Did the opera company have three different conductors?,,,,,,,,,,323,392,296,281,407,252,353,579,375,309,283,995,415,368,390,279,596,245,312,358,0,0,0,0,0,0,Aspect,10,,,,,,,,,,The,opera,company,had,three,different,conductors.,When,Mr.,Osaka,conducted,the,symphony,orchestra,it,played,better,than,anyone,else.,?,?,?,,,
German,115,54,m,Simple_LateClosure,m,Did the opera company have three different conductors?,,,,,,,,,,1875,462,433,908,236,495,1277,529,407,1083,533,463,894,1018,650,644,487,396,507,1100,0,0,0,0,0,0,Aspect,10,,,,,,,,,,The,opera,company,had,three,different,conductors.,When,Mr.,Osaka,conducted,the,symphony,orchestra,it,played,better,than,anyone,else.,?,?,?,,,
German,119,68,m,Simple_LateClosure,m,Did the opera company have three different conductors?,,,,,,,,,,305,240,546,272,240,324,219,262,1163,326,604,375,747,495,322,354,337,325,291,319,0,0,0,0,0,0,Aspect,10,,,,,,,,,,The,opera,company,had,three,different,conductors.,When,Mr.,Osaka,conducted,the,symphony,orchestra,it,played,better,than,anyone,else.,?,?,?,,,
German,127,11,m,Simple_LateClosure,m,Did the opera company have three different conductors?,,,,,,,,,,359,524,751,1055,353,476,390,564,377,570,450,469,370,451,382,370,415,386,385,417,0,0,0,0,0,0,Aspect,10,,,,,,,,,,The,opera,company,had,three,different,conductors.,When,Mr.,Osaka,conducted,the,symphony,orchestra,it,played,better,than,anyone,else.,?,?,?,,,
German,101,67,x,Simple_LateClosure,x,Were there three Italian chefs working at the restaurant?,,,,,,,,,196,191,176,157,206,185,166,171,159,180,181,167,171,173,169,155,181,161,186,89,219,,,,,,,Aspect,8,,,,,,,,,There,were,two,Italian,chefs,working,in,the,restaurant.,Because,Mario,cooked,the,fresh,pasta,it,was,made,to,real,perfection.,,,,,,
German,105,2,m,Simple_LateClosure,x,Were there three Italian chefs working at the restaurant?,,,,,,,,,461,479,501,513,449,453,497,521,573,561,504,640,568,546,395,411,406,413,418,450,544,0,0,0,0,0,0,Aspect,8,,,,,,,,,There,were,two,Italian,chefs,working,in,the,restaurant.,Because,Mario,cooked,the,fresh,pasta,it,was,made,to,real,perfection.,?,?,?,,,
German,109,3,x,Simple_LateClosure,x,Were there three Italian chefs working at the restaurant?,,,,,,,,,296,329,282,301,288,278,296,268,293,265,260,289,265,280,293,313,301,301,264,283,660,0,0,0,0,0,0,Aspect,8,,,,,,,,,There,were,two,Italian,chefs,working,in,the,restaurant.,Because,Mario,cooked,the,fresh,pasta,it,was,made,to,real,perfection.,?,?,?,,,
German,113,25,x,Simple_LateClosure,x,Were there three Italian chefs working at the restaurant?,,,,,,,,,1034,543,708,803,710,676,588,578,999,829,609,697,603,756,686,824,612,643,586,653,1425,0,0,0,0,0,0,Aspect,8,,,,,,,,,There,were,two,Italian,chefs,working,in,the,restaurant.,Because,Mario,cooked,the,fresh,pasta,it,was,made,to,real,perfection.,?,?,?,,,
German,117,6,x,Simple_LateClosure,x,Were there three Italian chefs working at the restaurant?,,,,,,,,,373,383,353,403,356,393,371,366,387,372,387,399,405,395,420,384,379,444,402,607,610,0,0,0,0,0,0,Aspect,8,,,,,,,,,There,were,two,Italian,chefs,working,in,the,restaurant.,Because,Mario,cooked,the,fresh,pasta,it,was,made,to,real,perfection.,?,?,?,,,
German,125,17,x,Simple_LateClosure,x,Were there three Italian chefs working at the restaurant?,,,,,,,,,437,371,450,461,449,860,425,405,493,518,585,407,591,448,521,460,447,347,463,432,663,0,0,0,0,0,0,Aspect,8,,,,,,,,,There,were,two,Italian,chefs,working,in,the,restaurant.,Because,Mario,cooked,the,fresh,pasta,it,was,made,to,real,perfection.,?,?,?,,,
German,129,7,x,Simple_LateClosure,x,Were there three Italian chefs working at the restaurant?,,,,,,,,,700,587,509,565,846,657,1279,598,877,1180,549,600,540,443,454,495,397,593,427,470,1107,0,0,0,0,0,0,Aspect,8,,,,,,,,,There,were,two,Italian,chefs,working,in,the,restaurant.,Because,Mario,cooked,the,fresh,pasta,it,was,made,to,real,perfection.,?,?,?,,,
German,106,84,m,Simple_LateClosure,x,Was the bar full?,,,,,,,,,426,381,408,465,445,476,437,433,390,476,410,496,513,419,452,463,473,536,430,414,409,0,0,0,0,0,0,Aspect,1,,,,,,,,,It,was,late,and,the,bar,was,full.,As,the,men,drank,the,strong,beer,it,was,spilled,on,the,floor.,?,?,?,,,
German,110,5,m,Simple_LateClosure,x,Was the bar full?,,,,,,,,,586,516,1186,522,553,486,916,2095,994,529,635,1725,392,1124,1155,332,418,475,344,385,801,0,0,0,0,0,0,Aspect,1,,,,,,,,,It,was,late,and,the,bar,was,full.,As,the,men,drank,the,strong,beer,it,was,spilled,on,the,floor.,?,?,?,,,
German,114,57,m,Simple_LateClosure,x,Was the bar full?,,,,,,,,,246,236,206,164,196,202,284,227,187,209,201,195,176,202,170,188,153,164,194,208,296,0,0,0,0,0,0,Aspect,1,,,,,,,,,It,was,late,and,the,bar,was,full.,As,the,men,drank,the,strong,beer,it,was,spilled,on,the,floor.,?,?,?,,,
German,118,75,m,Simple_LateClosure,x,Was the bar full?,,,,,,,,,258,245,292,263,318,353,310,338,361,312,408,380,545,288,323,359,356,257,364,349,558,0,0,0,0,0,0,Aspect,1,,,,,,,,,It,was,late,and,the,bar,was,full.,As,the,men,drank,the,strong,beer,it,was,spilled,on,the,floor.,?,?,?,,,
German,122,36,m,Simple_LateClosure,x,Was the bar full?,,,,,,,,,735,308,465,348,337,276,301,449,495,368,177,272,270,479,316,208,246,321,251,225,261,0,0,0,0,0,0,Aspect,1,,,,,,,,,It,was,late,and,the,bar,was,full.,As,the,men,drank,the,strong,beer,it,was,spilled,on,the,floor.,?,?,?,,,
German,126,78,m,Simple_LateClosure,x,Was the bar full?,,,,,,,,,328,467,461,336,327,346,283,308,338,228,287,319,333,306,372,493,343,288,365,289,426,0,0,0,0,0,0,Aspect,1,,,,,,,,,It,was,late,and,the,bar,was,full.,As,the,men,drank,the,strong,beer,it,was,spilled,on,the,floor.,?,?,?,,,
German,106,32,m,Simple_LateClosure,m,Were there different kinds of vehicles at the company?,,,,,,,,736,544,513,524,421,512,452,618,436,485,568,492,390,475,460,370,440,405,341,400,351,410,0,0,0,0,0,0,Aspect,9,,,,,,,,There,were,many,different,kinds,of,vehicles,at,the,company.,When,George,drove,the,big,lorry,it,made,loud,and,strange,noises.,?,?,?,,,
German,110,71,x,Simple_LateClosure,m,Were there different kinds of vehicles at the company?,,,,,,,,579,332,360,619,1017,237,628,697,576,757,351,277,276,261,227,349,613,258,490,231,721,266,0,0,0,0,0,0,Aspect,9,,,,,,,,There,were,many,different,kinds,of,vehicles,at,the,company.,When,George,drove,the,big,lorry,it,made,loud,and,strange,noises.,?,?,?,,,
German,114,70,m,Simple_LateClosure,m,Were there different kinds of vehicles at the company?,,,,,,,,211,155,286,219,220,221,216,184,133,171,188,257,221,195,169,179,212,318,246,251,316,255,0,0,0,0,0,0,Aspect,9,,,,,,,,There,were,many,different,kinds,of,vehicles,at,the,company.,When,George,drove,the,big,lorry,it,made,loud,and,strange,noises.,?,?,?,,,
German,118,19,m,Simple_LateClosure,m,Were there different kinds of vehicles at the company?,,,,,,,,540,618,550,572,523,531,639,348,422,374,468,470,580,413,417,391,486,424,418,567,539,630,0,0,0,0,0,0,Aspect,9,,,,,,,,There,were,many,different,kinds,of,vehicles,at,the,company.,When,George,drove,the,big,lorry,it,made,loud,and,strange,noises.,?,?,?,,,
German,122,26,m,Simple_LateClosure,m,Were there different kinds of vehicles at the company?,,,,,,,,602,609,314,357,360,469,377,321,237,263,245,321,292,387,381,306,407,339,247,266,253,238,0,0,0,0,0,0,Aspect,9,,,,,,,,There,were,many,different,kinds,of,vehicles,at,the,company.,When,George,drove,the,big,lorry,it,made,loud,and,strange,noises.,?,?,?,,,
German,126,83,m,Simple_LateClosure,m,Were there different kinds of vehicles at the company?,,,,,,,,321,409,307,408,420,568,397,462,453,897,537,409,370,342,384,372,401,1105,538,409,447,337,0,0,0,0,0,0,Aspect,9,,,,,,,,There,were,many,different,kinds,of,vehicles,at,the,company.,When,George,drove,the,big,lorry,it,made,loud,and,strange,noises.,?,?,?,,,
German,101,58,m,Simple_LateClosure,m,Did John and Sam take their guns into the woods?,,,,,,,,229,190,134,121,212,106,197,166,172,202,150,184,168,180,165,175,406,181,175,205,191,199,,,,,,,Aspect,4,,,,,,,,John,and,Sam,took,their,guns,out,into,the,woods.,As,John,hunted,the,frightened,rabbit,it,escaped,through,the,dark,trees.,,,,,,
German,105,67,m,Simple_LateClosure,m,Did John and Sam take their guns into the woods?,,,,,,,,415,397,383,433,491,395,724,557,398,333,331,282,298,422,296,365,343,339,343,317,317,295,0,0,0,0,0,0,Aspect,4,,,,,,,,John,and,Sam,took,their,guns,out,into,the,woods.,As,John,hunted,the,frightened,rabbit,it,escaped,through,the,dark,trees.,?,?,?,,,
German,109,19,m,Simple_LateClosure,m,Did John and Sam take their guns into the woods?,,,,,,,,292,140,234,279,205,180,477,274,308,296,316,272,258,283,243,296,392,50,447,238,302,314,0,0,0,0,0,0,Aspect,4,,,,,,,,John,and,Sam,took,their,guns,out,into,the,woods.,As,John,hunted,the,frightened,rabbit,it,escaped,through,the,dark,trees.,?,?,?,,,
German,113,71,m,Simple_LateClosure,m,Did John and Sam take their guns into the woods?,,,,,,,,1073,504,645,701,698,689,689,549,529,564,690,573,575,430,736,529,561,540,544,479,536,546,0,0,0,0,0,0,Aspect,4,,,,,,,,John,and,Sam,took,their,guns,out,into,the,woods.,As,John,hunted,the,frightened,rabbit,it,escaped,through,the,dark,trees.,?,?,?,,,
German,117,2,m,Simple_LateClosure,m,Did John and Sam take their guns into the woods?,,,,,,,,457,424,431,381,451,401,397,406,400,390,402,373,388,355,408,388,397,423,404,379,446,393,0,0,0,0,0,0,Aspect,4,,,,,,,,John,and,Sam,took,their,guns,out,into,the,woods.,As,John,hunted,the,frightened,rabbit,it,escaped,through,the,dark,trees.,?,?,?,,,
German,125,57,m,Simple_LateClosure,m,Did John and Sam take their guns into the woods?,,,,,,,,725,411,371,410,418,342,391,379,337,394,406,376,383,348,389,473,381,455,414,367,404,438,0,0,0,0,0,0,Aspect,4,,,,,,,,John,and,Sam,took,their,guns,out,into,the,woods.,As,John,hunted,the,frightened,rabbit,it,escaped,through,the,dark,trees.,?,?,?,,,
German,129,67,m,Simple_LateClosure,m,Did John and Sam take their guns into the woods?,,,,,,,,328,398,354,435,461,552,619,373,380,1033,431,323,324,302,456,381,377,394,366,370,354,476,0,0,0,0,0,0,Aspect,4,,,,,,,,John,and,Sam,took,their,guns,out,into,the,woods.,As,John,hunted,the,frightened,rabbit,it,escaped,through,the,dark,trees.,?,?,?,,,
German,103,21,m,Simple_LateClosure,m,Was the eviction notice canceled?,,,,,,,,,,,419,394,460,674,618,648,440,587,602,617,381,632,838,454,993,599,779,708,0,0,0,0,0,0,0,Aspect,18,,,,,,,,,,,The,lawyers’,office,was,rather,busy.,As,the,secretary,typed,the,eviction,notice,it,was,canceled,very,suddenly.,?,?,?,?,,,
German,111,40,m,Simple_LateClosure,m,Was the eviction notice canceled?,,,,,,,,,,,515,391,314,273,321,294,301,334,665,312,306,272,508,354,376,371,499,340,0,0,0,0,0,0,0,Aspect,18,,,,,,,,,,,The,lawyers’,office,was,rather,busy.,As,the,secretary,typed,the,eviction,notice,it,was,canceled,very,suddenly.,?,?,?,?,,,
German,115,81,x,Simple_LateClosure,m,Was the eviction notice canceled?,,,,,,,,,,,408,411,393,293,414,356,887,335,677,433,569,2652,489,635,678,909,428,717,0,0,0,0,0,0,0,Aspect,18,,,,,,,,,,,The,lawyers’,office,was,rather,busy.,As,the,secretary,typed,the,eviction,notice,it,was,canceled,very,suddenly.,?,?,?,?,,,
German,119,21,m,Simple_LateClosure,m,Was the eviction notice canceled?,,,,,,,,,,,465,274,1226,325,278,475,293,298,533,322,303,299,672,299,296,385,282,272,0,0,0,0,0,0,0,Aspect,18,,,,,,,,,,,The,lawyers’,office,was,rather,busy.,As,the,secretary,typed,the,eviction,notice,it,was,canceled,very,suddenly.,?,?,?,?,,,
German,127,73,m,Simple_LateClosure,m,Was the eviction notice canceled?,,,,,,,,,,,334,377,369,423,351,439,327,491,431,358,318,317,562,327,321,343,354,330,0,0,0,0,0,0,0,Aspect,18,,,,,,,,,,,The,lawyers’,office,was,rather,busy.,As,the,secretary,typed,the,eviction,notice,it,was,canceled,very,suddenly.,?,?,?,?,,,
German,101,63,x,Simple_LateClosure,x,Did Mrs. Brown park well?,,,,,,,,201,175,171,174,206,190,218,347,189,189,130,202,205,173,170,199,155,163,186,197,165,147,,,,,,,Aspect,20,,,,,,,,The,driving,instructor,almost,gave,up,on,Mrs.,Brown.,When,the,woman,parked,the,new,car,it,was,always,at,an,angle.,,,,,,
German,105,34,x,Simple_LateClosure,x,Did Mrs. Brown park well?,,,,,,,,354,565,368,330,387,322,255,308,365,366,346,459,333,341,306,368,329,382,341,344,364,404,0,0,0,0,0,0,Aspect,20,,,,,,,,The,driving,instructor,almost,gave,up,on,Mrs.,Brown.,When,the,woman,parked,the,new,car,it,was,always,at,an,angle.,?,?,?,,,
German,109,41,x,Simple_LateClosure,x,Did Mrs. Brown park well?,,,,,,,,212,229,293,215,235,237,234,257,238,290,273,219,243,243,250,265,269,280,306,272,252,405,0,0,0,0,0,0,Aspect,20,,,,,,,,The,driving,instructor,almost,gave,up,on,Mrs.,Brown.,When,the,woman,parked,the,new,car,it,was,always,at,an,angle.,?,?,?,,,
German,113,45,m,Simple_LateClosure,x,Did Mrs. Brown park well?,,,,,,,,547,685,658,703,728,470,662,669,828,822,661,578,562,503,601,437,703,580,551,561,525,553,0,0,0,0,0,0,Aspect,20,,,,,,,,The,driving,instructor,almost,gave,up,on,Mrs.,Brown.,When,the,woman,parked,the,new,car,it,was,always,at,an,angle.,?,?,?,,,
German,117,78,x,Simple_LateClosure,x,Did Mrs. Brown park well?,,,,,,,,588,173,221,239,238,285,234,222,275,349,336,233,242,195,247,240,271,274,270,327,276,343,0,0,0,0,0,0,Aspect,20,,,,,,,,The,driving,instructor,almost,gave,up,on,Mrs.,Brown.,When,the,woman,parked,the,new,car,it,was,always,at,an,angle.,?,?,?,,,
German,125,82,x,Simple_LateClosure,x,Did Mrs. Brown park well?,,,,,,,,479,443,464,406,444,406,289,355,287,429,360,393,360,527,348,380,331,318,342,337,600,267,0,0,0,0,0,0,Aspect,20,,,,,,,,The,driving,instructor,almost,gave,up,on,Mrs.,Brown.,When,the,woman,parked,the,new,car,it,was,always,at,an,angle.,?,?,?,,,
German,129,12,x,Simple_LateClosure,x,Did Mrs. Brown park well?,,,,,,,,746,401,584,404,559,441,531,534,582,552,448,506,474,543,494,620,449,486,505,519,501,755,0,0,0,0,0,0,Aspect,20,,,,,,,,The,driving,instructor,almost,gave,up,on,Mrs.,Brown.,When,the,woman,parked,the,new,car,it,was,always,at,an,angle.,?,?,?,,,
German,112,11,m,Simple_LateClosure,m,Was the town safe?,,,,,,,,465,1375,688,831,520,596,511,544,709,863,636,504,688,458,564,584,583,487,424,595,592,0,0,0,0,0,0,0,Aspect,11,,,,,,,,On,Saturday,"nights,",the,police,department,was,very,busy.,When,the,sheriff,patrolled,the,whole,town,it,was,safe,and,secure.,?,?,?,?,,,
German,116,64,m,Simple_LateClosure,m,Was the town safe?,,,,,,,,122,465,331,259,316,441,280,184,158,177,397,168,574,170,211,230,219,163,191,174,366,0,0,0,0,0,0,0,Aspect,11,,,,,,,,On,Saturday,"nights,",the,police,department,was,very,busy.,When,the,sheriff,patrolled,the,whole,town,it,was,safe,and,secure.,?,?,?,?,,,
German,120,53,m,Simple_LateClosure,m,Was the town safe?,,,,,,,,220,219,268,180,658,197,218,220,208,272,260,471,226,231,302,255,264,276,227,212,221,0,0,0,0,0,0,0,Aspect,11,,,,,,,,On,Saturday,"nights,",the,police,department,was,very,busy.,When,the,sheriff,patrolled,the,whole,town,it,was,safe,and,secure.,?,?,?,?,,,
German,124,53,m,Simple_LateClosure,m,Was the town safe?,,,,,,,,292,271,681,256,196,350,259,423,281,698,239,291,454,401,622,429,356,2561,492,283,1244,0,0,0,0,0,0,0,Aspect,11,,,,,,,,On,Saturday,"nights,",the,police,department,was,very,busy.,When,the,sheriff,patrolled,the,whole,town,it,was,safe,and,secure.,?,?,?,?,,,
German,128,82,m,Simple_LateClosure,m,Was the town safe?,,,,,,,,378,641,228,232,291,254,276,257,273,234,274,254,254,244,256,242,270,255,272,276,236,0,0,0,0,0,0,0,Aspect,11,,,,,,,,On,Saturday,"nights,",the,police,department,was,very,busy.,When,the,sheriff,patrolled,the,whole,town,it,was,safe,and,secure.,?,?,?,?,,,
German,132,4,m,Simple_LateClosure,m,Was the town safe?,,,,,,,,480,461,550,443,396,774,554,567,762,414,343,535,611,428,409,533,486,477,533,469,1151,0,0,0,0,0,0,0,Aspect,11,,,,,,,,On,Saturday,"nights,",the,police,department,was,very,busy.,When,the,sheriff,patrolled,the,whole,town,it,was,safe,and,secure.,?,?,?,?,,,
German,101,41,m,Simple_LateClosure,m,Did the furniture look expensive?,,,,,,,,,231,208,242,143,202,154,147,203,156,209,204,191,204,167,189,197,204,210,197,201,,,,,,,,Aspect,16,,,,,,,,,Sarah,and,Jane,owned,a,shop,selling,old,furniture.,When,Sarah,polished,the,cheap,furniture,it,looked,new,and,expensive.,,,,,,,
German,105,15,m,Simple_LateClosure,m,Did the furniture look expensive?,,,,,,,,,419,420,396,481,367,417,519,384,420,387,345,411,463,579,453,453,396,383,723,484,0,0,0,0,0,0,0,Aspect,16,,,,,,,,,Sarah,and,Jane,owned,a,shop,selling,old,furniture.,When,Sarah,polished,the,cheap,furniture,it,looked,new,and,expensive.,?,?,?,?,,,
German,109,40,m,Simple_LateClosure,m,Did the furniture look expensive?,,,,,,,,,217,169,186,222,265,245,241,253,323,277,306,309,313,313,435,322,302,294,276,295,0,0,0,0,0,0,0,Aspect,16,,,,,,,,,Sarah,and,Jane,owned,a,shop,selling,old,furniture.,When,Sarah,polished,the,cheap,furniture,it,looked,new,and,expensive.,?,?,?,?,,,
German,113,13,m,Simple_LateClosure,m,Did the furniture look expensive?,,,,,,,,,883,699,723,785,775,666,747,675,745,731,644,786,821,665,785,737,632,733,671,672,0,0,0,0,0,0,0,Aspect,16,,,,,,,,,Sarah,and,Jane,owned,a,shop,selling,old,furniture.,When,Sarah,polished,the,cheap,furniture,it,looked,new,and,expensive.,?,?,?,?,,,
German,117,31,m,Simple_LateClosure,m,Did the furniture look expensive?,,,,,,,,,309,298,275,290,357,337,285,315,306,589,292,297,278,269,288,253,319,249,334,368,0,0,0,0,0,0,0,Aspect,16,,,,,,,,,Sarah,and,Jane,owned,a,shop,selling,old,furniture.,When,Sarah,polished,the,cheap,furniture,it,looked,new,and,expensive.,?,?,?,?,,,
German,125,77,m,Simple_LateClosure,m,Did the furniture look expensive?,,,,,,,,,737,446,356,377,420,389,421,433,736,487,479,731,450,410,531,451,372,409,406,619,0,0,0,0,0,0,0,Aspect,16,,,,,,,,,Sarah,and,Jane,owned,a,shop,selling,old,furniture.,When,Sarah,polished,the,cheap,furniture,it,looked,new,and,expensive.,?,?,?,?,,,
German,129,35,m,Simple_LateClosure,m,Did the furniture look expensive?,,,,,,,,,433,365,356,378,563,436,593,469,1076,452,412,658,389,336,460,896,583,513,549,878,0,0,0,0,0,0,0,Aspect,16,,,,,,,,,Sarah,and,Jane,owned,a,shop,selling,old,furniture.,When,Sarah,polished,the,cheap,furniture,it,looked,new,and,expensive.,?,?,?,?,,,
German,101,20,m,Simple_LateClosure,m,Did the horse jump a fence?,,,,,,,,,,265,178,220,236,201,220,216,203,214,208,196,178,183,202,208,210,195,204,196,227,218,0,,,,,Aspect,12,,,,,,,,,,Jenny,and,Sam,went,out,for,a,ride.,While,Jenny,rode,the,young,horse,it,decided,to,jump,a,high,fence.,,,,,
German,105,76,m,Simple_LateClosure,m,Did the horse jump a fence?,,,,,,,,,,315,339,361,359,333,305,313,384,384,361,349,341,304,345,372,344,355,303,329,340,320,0,0,0,0,0,Aspect,12,,,,,,,,,,Jenny,and,Sam,went,out,for,a,ride.,While,Jenny,rode,the,young,horse,it,decided,to,jump,a,high,fence.,?,?,,,
German,109,63,m,Simple_LateClosure,m,Did the horse jump a fence?,,,,,,,,,,178,199,216,213,184,216,177,312,461,215,234,206,218,244,232,239,217,170,302,242,275,0,0,0,0,0,Aspect,12,,,,,,,,,,Jenny,and,Sam,went,out,for,a,ride.,While,Jenny,rode,the,young,horse,it,decided,to,jump,a,high,fence.,?,?,,,
German,113,74,m,Simple_LateClosure,m,Did the horse jump a fence?,,,,,,,,,,500,612,693,547,875,602,474,522,733,524,449,483,647,440,406,608,444,592,500,407,470,0,0,0,0,0,Aspect,12,,,,,,,,,,Jenny,and,Sam,went,out,for,a,ride.,While,Jenny,rode,the,young,horse,it,decided,to,jump,a,high,fence.,?,?,,,
German,117,57,m,Simple_LateClosure,m,Did the horse jump a fence?,,,,,,,,,,233,241,202,246,163,225,214,205,218,212,236,216,211,279,210,288,239,273,273,224,314,0,0,0,0,0,Aspect,12,,,,,,,,,,Jenny,and,Sam,went,out,for,a,ride.,While,Jenny,rode,the,young,horse,it,decided,to,jump,a,high,fence.,?,?,,,
German,125,78,m,Simple_LateClosure,m,Did the horse jump a fence?,,,,,,,,,,493,512,440,379,387,442,797,432,394,318,643,413,443,458,463,846,635,353,332,301,446,0,0,0,0,0,Aspect,12,,,,,,,,,,Jenny,and,Sam,went,out,for,a,ride.,While,Jenny,rode,the,young,horse,it,decided,to,jump,a,high,fence.,?,?,,,
German,129,14,m,Simple_LateClosure,m,Did the horse jump a fence?,,,,,,,,,,988,674,701,633,1017,572,640,1443,473,588,620,547,509,706,804,620,490,498,532,622,525,0,0,0,0,0,Aspect,12,,,,,,,,,,Jenny,and,Sam,went,out,for,a,ride.,While,Jenny,rode,the,young,horse,it,decided,to,jump,a,high,fence.,?,?,,,
German,112,14,x,Simple_LateClosure,x,Did Tony hate to sing at parties?,,,,,,,,,1305,444,535,575,517,516,620,505,787,545,696,586,506,842,834,1141,651,571,1699,0,0,0,0,0,0,0,0,Aspect,3,,,,,,,,,Tony,and,his,friends,loved,to,sing,at,parties.,When,Tony,sang,the,drinking,song,it,sounded,like,opera.,?,?,?,?,?,,,
German,116,30,x,Simple_LateClosure,x,Did Tony hate to sing at parties?,,,,,,,,,499,221,270,194,232,252,226,242,375,465,249,189,428,244,187,748,514,230,625,0,0,0,0,0,0,0,0,Aspect,3,,,,,,,,,Tony,and,his,friends,loved,to,sing,at,parties.,When,Tony,sang,the,drinking,song,it,sounded,like,opera.,?,?,?,?,?,,,
German,120,81,x,Simple_LateClosure,x,Did Tony hate to sing at parties?,,,,,,,,,322,220,217,213,243,225,720,218,234,262,205,197,221,235,251,266,397,253,244,0,0,0,0,0,0,0,0,Aspect,3,,,,,,,,,Tony,and,his,friends,loved,to,sing,at,parties.,When,Tony,sang,the,drinking,song,it,sounded,like,opera.,?,?,?,?,?,,,
German,124,76,x,Simple_LateClosure,x,Did Tony hate to sing at parties?,,,,,,,,,254,326,391,237,292,252,385,403,265,464,307,343,431,439,504,502,302,334,632,0,0,0,0,0,0,0,0,Aspect,3,,,,,,,,,Tony,and,his,friends,loved,to,sing,at,parties.,When,Tony,sang,the,drinking,song,it,sounded,like,opera.,?,?,?,?,?,,,
German,128,27,x,Simple_LateClosure,x,Did Tony hate to sing at parties?,,,,,,,,,247,264,321,257,493,338,276,271,284,296,442,318,315,393,382,314,326,345,292,0,0,0,0,0,0,0,0,Aspect,3,,,,,,,,,Tony,and,his,friends,loved,to,sing,at,parties.,When,Tony,sang,the,drinking,song,it,sounded,like,opera.,?,?,?,?,?,,,
German,132,27,x,Simple_LateClosure,x,Did Tony hate to sing at parties?,,,,,,,,,985,300,286,466,319,418,531,372,645,1215,489,346,365,593,461,585,601,463,1284,0,0,0,0,0,0,0,0,Aspect,3,,,,,,,,,Tony,and,his,friends,loved,to,sing,at,parties.,When,Tony,sang,the,drinking,song,it,sounded,like,opera.,?,?,?,?,?,,,
German,106,82,m,Prog_EarlyClosure,m,Did the furniture look expensive?,,,,,,,,459,504,747,520,462,550,488,463,439,478,610,791,493,370,436,525,403,663,470,411,0,0,0,0,0,0,0,0,Aspect,16,,,,,,,,Sarah,and,Jane,owned,a,shop,selling,old,furniture.,When,Sarah,was,polishing,the,cheap,furniture,looked,new,and,expensive.,?,?,?,?,?,?,?,?
German,110,25,x,Prog_EarlyClosure,m,Did the furniture look expensive?,,,,,,,,536,426,776,348,345,694,627,354,275,518,594,589,352,463,346,355,393,1705,626,1050,0,0,0,0,0,0,0,0,Aspect,16,,,,,,,,Sarah,and,Jane,owned,a,shop,selling,old,furniture.,When,Sarah,was,polishing,the,cheap,furniture,looked,new,and,expensive.,?,?,?,?,?,?,?,?
German,114,72,m,Prog_EarlyClosure,m,Did the furniture look expensive?,,,,,,,,138,328,204,200,259,221,283,216,266,281,224,230,195,193,262,300,305,210,236,286,0,0,0,0,0,0,0,0,Aspect,16,,,,,,,,Sarah,and,Jane,owned,a,shop,selling,old,furniture.,When,Sarah,was,polishing,the,cheap,furniture,looked,new,and,expensive.,?,?,?,?,?,?,?,?
German,118,79,m,Prog_EarlyClosure,m,Did the furniture look expensive?,,,,,,,,487,479,392,324,415,414,553,302,409,391,351,391,473,472,414,444,444,514,559,492,0,0,0,0,0,0,0,0,Aspect,16,,,,,,,,Sarah,and,Jane,owned,a,shop,selling,old,furniture.,When,Sarah,was,polishing,the,cheap,furniture,looked,new,and,expensive.,?,?,?,?,?,?,?,?
German,122,9,m,Prog_EarlyClosure,m,Did the furniture look expensive?,,,,,,,,393,377,226,336,259,220,380,285,200,428,330,326,442,310,230,286,370,454,278,531,0,0,0,0,0,0,0,0,Aspect,16,,,,,,,,Sarah,and,Jane,owned,a,shop,selling,old,furniture.,When,Sarah,was,polishing,the,cheap,furniture,looked,new,and,expensive.,?,?,?,?,?,?,?,?
German,126,25,m,Prog_EarlyClosure,m,Did the furniture look expensive?,,,,,,,,660,916,369,433,367,430,989,520,1951,705,400,611,596,373,310,438,356,959,342,605,0,0,0,0,0,0,0,0,Aspect,16,,,,,,,,Sarah,and,Jane,owned,a,shop,selling,old,furniture.,When,Sarah,was,polishing,the,cheap,furniture,looked,new,and,expensive.,?,?,?,?,?,?,?,?
German,112,15,m,Simple_EarlyClosure,m,Did the furniture look expensive?,,,,,,,,,1063,687,534,559,600,679,710,476,900,856,757,591,550,506,618,2667,2226,1124,707,0,0,0,0,0,0,0,0,Aspect,16,,,,,,,,,Sarah,and,Jane,owned,a,shop,selling,old,furniture.,When,Sarah,polished,the,cheap,furniture,looked,new,and,expensive.,?,?,?,?,?,?,?,?
German,116,57,m,Simple_EarlyClosure,m,Did the furniture look expensive?,,,,,,,,,266,286,308,372,369,317,337,313,390,600,166,229,343,484,424,353,338,306,784,0,0,0,0,0,0,0,0,Aspect,16,,,,,,,,,Sarah,and,Jane,owned,a,shop,selling,old,furniture.,When,Sarah,polished,the,cheap,furniture,looked,new,and,expensive.,?,?,?,?,?,?,?,?
German,120,23,m,Simple_EarlyClosure,m,Did the furniture look expensive?,,,,,,,,,358,316,291,304,330,313,334,309,342,363,276,263,286,390,302,372,331,360,383,0,0,0,0,0,0,0,0,Aspect,16,,,,,,,,,Sarah,and,Jane,owned,a,shop,selling,old,furniture.,When,Sarah,polished,the,cheap,furniture,looked,new,and,expensive.,?,?,?,?,?,?,?,?
German,124,61,m,Simple_EarlyClosure,m,Did the furniture look expensive?,,,,,,,,,408,385,237,394,547,357,236,510,288,576,292,419,309,434,433,379,634,391,1646,0,0,0,0,0,0,0,0,Aspect,16,,,,,,,,,Sarah,and,Jane,owned,a,shop,selling,old,furniture.,When,Sarah,polished,the,cheap,furniture,looked,new,and,expensive.,?,?,?,?,?,?,?,?
German,128,63,x,Simple_EarlyClosure,m,Did the furniture look expensive?,,,,,,,,,416,275,281,275,287,335,365,256,360,330,319,353,274,328,295,307,261,341,314,0,0,0,0,0,0,0,0,Aspect,16,,,,,,,,,Sarah,and,Jane,owned,a,shop,selling,old,furniture.,When,Sarah,polished,the,cheap,furniture,looked,new,and,expensive.,?,?,?,?,?,?,?,?
German,132,64,m,Simple_EarlyClosure,m,Did the furniture look expensive?,,,,,,,,,330,292,232,272,327,246,438,234,244,494,230,251,323,297,362,286,849,325,438,0,0,0,0,0,0,0,0,Aspect,16,,,,,,,,,Sarah,and,Jane,owned,a,shop,selling,old,furniture.,When,Sarah,polished,the,cheap,furniture,looked,new,and,expensive.,?,?,?,?,?,?,?,?
German,103,5,m,Prog_EarlyClosure,m,Were there different kinds of vehicles at the company?,,,,,,,450,559,524,467,455,472,785,526,371,404,416,425,455,631,422,410,456,546,448,521,699,478,0,0,0,0,0,0,0,Aspect,9,,,,,,,There,were,many,different,kinds,of,vehicles,at,the,company.,When,George,was,driving,the,big,lorry,made,loud,and,strange,noises.,?,?,?,?,?,?,?
German,111,60,m,Prog_EarlyClosure,m,Were there different kinds of vehicles at the company?,,,,,,,314,238,377,210,278,249,331,374,238,343,243,292,290,278,246,261,292,242,336,260,292,298,0,0,0,0,0,0,0,Aspect,9,,,,,,,There,were,many,different,kinds,of,vehicles,at,the,company.,When,George,was,driving,the,big,lorry,made,loud,and,strange,noises.,?,?,?,?,?,?,?
German,115,64,m,Prog_EarlyClosure,m,Were there different kinds of vehicles at the company?,,,,,,,437,353,545,464,883,481,1035,1174,552,1361,541,226,510,482,724,408,440,1078,310,402,482,457,0,0,0,0,0,0,0,Aspect,9,,,,,,,There,were,many,different,kinds,of,vehicles,at,the,company.,When,George,was,driving,the,big,lorry,made,loud,and,strange,noises.,?,?,?,?,?,?,?
German,119,10,x,Prog_EarlyClosure,m,Were there different kinds of vehicles at the company?,,,,,,,326,301,253,272,279,277,238,264,295,242,257,243,280,260,222,272,234,307,283,526,285,381,0,0,0,0,0,0,0,Aspect,9,,,,,,,There,were,many,different,kinds,of,vehicles,at,the,company.,When,George,was,driving,the,big,lorry,made,loud,and,strange,noises.,?,?,?,?,?,?,?
German,127,47,m,Prog_EarlyClosure,m,Were there different kinds of vehicles at the company?,,,,,,,416,548,482,452,433,388,390,408,394,345,419,380,400,318,385,433,402,414,475,390,481,397,0,0,0,0,0,0,0,Aspect,9,,,,,,,There,were,many,different,kinds,of,vehicles,at,the,company.,When,George,was,driving,the,big,lorry,made,loud,and,strange,noises.,?,?,?,?,?,?,?
German,101,68,m,Simple_EarlyClosure,m,Were there different kinds of vehicles at the company?,,,,,,,,185,174,180,166,184,203,194,155,231,215,178,191,214,209,212,189,191,178,198,237,259,,,,,,,,Aspect,9,,,,,,,,There,were,many,different,kinds,of,vehicles,at,the,company.,When,George,drove,the,big,lorry,made,loud,and,strange,noises,,,,,,,
German,105,10,m,Simple_EarlyClosure,m,Were there different kinds of vehicles at the company?,,,,,,,,622,442,390,375,509,376,501,386,427,1812,1237,343,394,379,370,346,394,657,466,669,382,0,0,0,0,0,0,0,Aspect,9,,,,,,,,There,were,many,different,kinds,of,vehicles,at,the,company.,When,George,drove,the,big,lorry,made,loud,and,strange,noises,?,?,?,?,?,?,?
German,109,30,m,Simple_EarlyClosure,m,Were there different kinds of vehicles at the company?,,,,,,,,195,224,176,232,210,192,232,239,239,232,242,244,279,254,261,288,270,296,292,255,263,0,0,0,0,0,0,0,Aspect,9,,,,,,,,There,were,many,different,kinds,of,vehicles,at,the,company.,When,George,drove,the,big,lorry,made,loud,and,strange,noises,?,?,?,?,?,?,?
German,113,66,m,Simple_EarlyClosure,m,Were there different kinds of vehicles at the company?,,,,,,,,613,609,731,975,625,465,750,493,435,472,638,585,441,496,615,468,542,524,435,778,598,0,0,0,0,0,0,0,Aspect,9,,,,,,,,There,were,many,different,kinds,of,vehicles,at,the,company.,When,George,drove,the,big,lorry,made,loud,and,strange,noises,?,?,?,?,?,?,?
German,117,25,m,Simple_EarlyClosure,m,Were there different kinds of vehicles at the company?,,,,,,,,1429,908,432,403,316,331,383,289,306,337,336,266,335,279,289,294,326,359,320,320,339,0,0,0,0,0,0,0,Aspect,9,,,,,,,,There,were,many,different,kinds,of,vehicles,at,the,company.,When,George,drove,the,big,lorry,made,loud,and,strange,noises,?,?,?,?,?,?,?
German,125,46,m,Simple_EarlyClosure,m,Were there different kinds of vehicles at the company?,,,,,,,,608,532,824,459,440,452,765,994,430,372,562,387,378,388,379,347,441,741,410,449,407,0,0,0,0,0,0,0,Aspect,9,,,,,,,,There,were,many,different,kinds,of,vehicles,at,the,company.,When,George,drove,the,big,lorry,made,loud,and,strange,noises,?,?,?,?,?,?,?
German,129,77,m,Simple_EarlyClosure,m,Were there different kinds of vehicles at the company?,,,,,,,,314,337,320,362,353,392,572,554,348,1397,402,297,280,323,398,397,697,537,424,461,398,0,0,0,0,0,0,0,Aspect,9,,,,,,,,There,were,many,different,kinds,of,vehicles,at,the,company.,When,George,drove,the,big,lorry,made,loud,and,strange,noises,?,?,?,?,?,?,?
German,112,9,m,Prog_EarlyClosure,m,Did the opera company have three different conductors?,,,,,,,,,598,607,499,551,647,561,1026,1059,581,559,624,641,546,764,1502,2208,482,503,576,470,0,0,0,0,0,0,0,Aspect,10,,,,,,,,,The,opera,company,had,three,different,conductors.,When,Mr.,Osaka,was,conducting,the,symphony,orchestra,played,better,than,anyone,else.,?,?,?,?,?,?,?
German,116,35,m,Prog_EarlyClosure,m,Did the opera company have three different conductors?,,,,,,,,,611,170,244,1018,232,226,422,442,318,402,605,504,351,456,338,428,301,362,275,271,0,0,0,0,0,0,0,Aspect,10,,,,,,,,,The,opera,company,had,three,different,conductors.,When,Mr.,Osaka,was,conducting,the,symphony,orchestra,played,better,than,anyone,else.,?,?,?,?,?,?,?
German,120,71,x,Prog_EarlyClosure,m,Did the opera company have three different conductors?,,,,,,,,,245,197,189,254,212,169,286,624,240,219,349,148,312,184,251,275,261,222,245,214,0,0,0,0,0,0,0,Aspect,10,,,,,,,,,The,opera,company,had,three,different,conductors.,When,Mr.,Osaka,was,conducting,the,symphony,orchestra,played,better,than,anyone,else.,?,?,?,?,?,?,?
German,124,77,m,Prog_EarlyClosure,m,Did the opera company have three different conductors?,,,,,,,,,234,379,319,402,315,380,336,627,274,378,402,401,372,349,455,296,302,484,377,663,0,0,0,0,0,0,0,Aspect,10,,,,,,,,,The,opera,company,had,three,different,conductors.,When,Mr.,Osaka,was,conducting,the,symphony,orchestra,played,better,than,anyone,else.,?,?,?,?,?,?,?
German,128,30,m,Prog_EarlyClosure,m,Did the opera company have three different conductors?,,,,,,,,,402,257,231,259,309,454,382,349,358,306,349,471,308,314,324,312,572,291,316,327,0,0,0,0,0,0,0,Aspect,10,,,,,,,,,The,opera,company,had,three,different,conductors.,When,Mr.,Osaka,was,conducting,the,symphony,orchestra,played,better,than,anyone,else.,?,?,?,?,?,?,?
German,132,30,m,Prog_EarlyClosure,m,Did the opera company have three different conductors?,,,,,,,,,390,373,270,358,286,248,257,344,287,259,270,253,226,198,291,235,601,542,501,675,0,0,0,0,0,0,0,Aspect,10,,,,,,,,,The,opera,company,had,three,different,conductors.,When,Mr.,Osaka,was,conducting,the,symphony,orchestra,played,better,than,anyone,else.,?,?,?,?,?,?,?
German,106,58,m,Simple_EarlyClosure,m,Did the opera company have three different conductors?,,,,,,,,,,550,527,518,904,797,567,541,544,467,433,587,417,464,871,1156,1227,680,559,433,0,0,0,0,0,0,0,Aspect,10,,,,,,,,,,The,opera,company,had,three,different,conductors.,When,Mr.,Osaka,conducted,the,symphony,orchestra,played,better,than,anyone,else.,?,?,?,?,?,?,?
German,110,19,x,Simple_EarlyClosure,m,Did the opera company have three different conductors?,,,,,,,,,,359,386,1019,504,368,408,347,1083,304,467,755,341,712,624,521,829,517,610,330,0,0,0,0,0,0,0,Aspect,10,,,,,,,,,,The,opera,company,had,three,different,conductors.,When,Mr.,Osaka,conducted,the,symphony,orchestra,played,better,than,anyone,else.,?,?,?,?,?,?,?
German,114,52,m,Simple_EarlyClosure,m,Did the opera company have three different conductors?,,,,,,,,,,200,173,302,328,204,234,234,198,290,404,214,239,231,425,229,200,185,295,268,0,0,0,0,0,0,0,Aspect,10,,,,,,,,,,The,opera,company,had,three,different,conductors.,When,Mr.,Osaka,conducted,the,symphony,orchestra,played,better,than,anyone,else.,?,?,?,?,?,?,?
German,118,24,m,Simple_EarlyClosure,m,Did the opera company have three different conductors?,,,,,,,,,,442,510,385,370,369,575,549,459,403,364,473,385,383,413,394,404,341,381,606,0,0,0,0,0,0,0,Aspect,10,,,,,,,,,,The,opera,company,had,three,different,conductors.,When,Mr.,Osaka,conducted,the,symphony,orchestra,played,better,than,anyone,else.,?,?,?,?,?,?,?
German,122,25,x,Simple_EarlyClosure,m,Did the opera company have three different conductors?,,,,,,,,,,324,724,478,417,250,279,220,422,476,433,605,243,152,352,225,277,294,263,225,0,0,0,0,0,0,0,Aspect,10,,,,,,,,,,The,opera,company,had,three,different,conductors.,When,Mr.,Osaka,conducted,the,symphony,orchestra,played,better,than,anyone,else.,?,?,?,?,?,?,?
German,126,35,m,Simple_EarlyClosure,m,Did the opera company have three different conductors?,,,,,,,,,,553,638,603,486,656,518,632,531,525,568,555,818,648,2464,848,1096,496,1055,548,0,0,0,0,0,0,0,Aspect,10,,,,,,,,,,The,opera,company,had,three,different,conductors.,When,Mr.,Osaka,conducted,the,symphony,orchestra,played,better,than,anyone,else.,?,?,?,?,?,?,?
German,106,39,m,Prog_LateClosure,m,Did the model keep still?,,,512,572,549,512,439,686,599,640,553,516,489,502,571,411,531,452,487,472,636,527,445,487,660,423,414,446,437,589,0,0,0,0,0,Aspect,19,,,Yesterday,in,my,art,"class,",the,model,sat,in,the,same,position,for,hours.,As,I,was,drawing,the,patient,woman,she,tried,very,hard,to,keep,still.,?,?,?,?,?
German,110,77,m,Prog_LateClosure,m,Did the model keep still?,,,664,337,173,304,218,314,292,202,324,245,383,211,377,179,501,274,486,663,471,244,279,227,327,783,235,463,253,700,0,0,0,0,0,Aspect,19,,,Yesterday,in,my,art,"class,",the,model,sat,in,the,same,position,for,hours.,As,I,was,drawing,the,patient,woman,she,tried,very,hard,to,keep,still.,?,?,?,?,?
German,114,33,m,Prog_LateClosure,m,Did the model keep still?,,,201,158,152,84,192,160,188,133,141,247,188,168,191,200,287,194,191,272,108,185,214,207,356,214,222,274,242,236,0,0,0,0,0,Aspect,19,,,Yesterday,in,my,art,"class,",the,model,sat,in,the,same,position,for,hours.,As,I,was,drawing,the,patient,woman,she,tried,very,hard,to,keep,still.,?,?,?,?,?
German,118,43,m,Prog_LateClosure,m,Did the model keep still?,,,555,380,364,299,351,301,261,361,442,298,373,650,348,329,374,389,340,268,414,367,373,354,335,405,315,443,385,548,0,0,0,0,0,Aspect,19,,,Yesterday,in,my,art,"class,",the,model,sat,in,the,same,position,for,hours.,As,I,was,drawing,the,patient,woman,she,tried,very,hard,to,keep,still.,?,?,?,?,?
German,122,10,m,Prog_LateClosure,m,Did the model keep still?,,,362,297,311,172,255,257,251,232,291,253,310,429,292,220,395,351,184,203,281,354,382,344,1038,270,279,276,332,299,0,0,0,0,0,Aspect,19,,,Yesterday,in,my,art,"class,",the,model,sat,in,the,same,position,for,hours.,As,I,was,drawing,the,patient,woman,she,tried,very,hard,to,keep,still.,?,?,?,?,?
German,126,75,m,Prog_LateClosure,m,Did the model keep still?,,,467,372,353,822,376,362,397,396,378,333,405,454,382,322,473,327,347,316,321,340,1121,430,585,354,472,410,435,605,0,0,0,0,0,Aspect,19,,,Yesterday,in,my,art,"class,",the,model,sat,in,the,same,position,for,hours.,As,I,was,drawing,the,patient,woman,she,tried,very,hard,to,keep,still.,?,?,?,?,?
German,112,77,m,Simple_LateClosure,m,Did the model keep still?,,,,418,376,355,382,397,445,414,469,433,410,412,391,400,443,577,374,395,451,414,443,681,570,403,511,539,459,506,0,0,0,0,0,Aspect,19,,,,Yesterday,in,my,art,"class,",the,model,sat,in,the,same,position,for,hours.,As,I,drew,the,patient,woman,she,tried,very,hard,to,keep,still.,?,?,?,?,?
German,116,54,m,Simple_LateClosure,m,Did the model keep still?,,,,617,120,137,153,482,162,186,355,182,360,219,170,368,207,534,278,176,477,800,318,177,316,223,499,269,320,215,0,0,0,0,0,Aspect,19,,,,Yesterday,in,my,art,"class,",the,model,sat,in,the,same,position,for,hours.,As,I,drew,the,patient,woman,she,tried,very,hard,to,keep,still.,?,?,?,?,?
German,120,26,x,Simple_LateClosure,m,Did the model keep still?,,,,268,362,278,289,286,271,339,324,264,240,276,250,321,254,296,260,299,266,306,514,287,391,360,343,371,291,288,0,0,0,0,0,Aspect,19,,,,Yesterday,in,my,art,"class,",the,model,sat,in,the,same,position,for,hours.,As,I,drew,the,patient,woman,she,tried,very,hard,to,keep,still.,?,?,?,?,?
German,124,38,x,Simple_LateClosure,m,Did the model keep still?,,,,874,333,850,360,391,307,482,320,245,362,370,460,397,443,1844,339,434,331,433,704,394,359,366,312,540,387,625,0,0,0,0,0,Aspect,19,,,,Yesterday,in,my,art,"class,",the,model,sat,in,the,same,position,for,hours.,As,I,drew,the,patient,woman,she,tried,very,hard,to,keep,still.,?,?,?,?,?
German,128,13,m,Simple_LateClosure,m,Did the model keep still?,,,,330,406,592,347,330,345,370,341,324,311,396,308,302,324,422,414,366,311,317,337,349,468,260,424,342,322,345,0,0,0,0,0,Aspect,19,,,,Yesterday,in,my,art,"class,",the,model,sat,in,the,same,position,for,hours.,As,I,drew,the,patient,woman,she,tried,very,hard,to,keep,still.,?,?,?,?,?
German,132,67,m,Simple_LateClosure,m,Did the model keep still?,,,,585,357,238,241,295,301,508,232,217,339,234,217,287,226,336,186,151,327,446,275,385,407,530,660,427,492,756,0,0,0,0,0,Aspect,19,,,,Yesterday,in,my,art,"class,",the,model,sat,in,the,same,position,for,hours.,As,I,drew,the,patient,woman,she,tried,very,hard,to,keep,still.,?,?,?,?,?
German,112,74,x,Prog_EarlyClosure,x,Was the flat tidy?,,,,,,,,,395,355,406,416,382,573,415,466,398,427,398,455,347,374,548,639,947,369,822,0,0,0,0,0,0,0,0,Aspect,6,,,,,,,,,The,flat,was,very,old,and,dirty.,Even,when,Joe,was,cleaning,the,small,kitchen,smelled,like,old,rubbish.,?,?,?,?,?,?,?,?
German,116,75,x,Prog_EarlyClosure,x,Was the flat tidy?,,,,,,,,,369,165,148,146,154,315,184,179,164,141,144,177,413,155,132,193,226,202,477,0,0,0,0,0,0,0,0,Aspect,6,,,,,,,,,The,flat,was,very,old,and,dirty.,Even,when,Joe,was,cleaning,the,small,kitchen,smelled,like,old,rubbish.,?,?,?,?,?,?,?,?
German,120,74,x,Prog_EarlyClosure,x,Was the flat tidy?,,,,,,,,,204,208,200,227,431,203,196,234,276,191,212,131,284,630,224,263,232,302,207,0,0,0,0,0,0,0,0,Aspect,6,,,,,,,,,The,flat,was,very,old,and,dirty.,Even,when,Joe,was,cleaning,the,small,kitchen,smelled,like,old,rubbish.,?,?,?,?,?,?,?,?
German,124,50,x,Prog_EarlyClosure,x,Was the flat tidy?,,,,,,,,,207,700,510,308,193,699,287,445,436,289,372,472,331,358,251,441,960,294,1215,0,0,0,0,0,0,0,0,Aspect,6,,,,,,,,,The,flat,was,very,old,and,dirty.,Even,when,Joe,was,cleaning,the,small,kitchen,smelled,like,old,rubbish.,?,?,?,?,?,?,?,?
German,128,81,x,Prog_EarlyClosure,x,Was the flat tidy?,,,,,,,,,507,531,254,278,281,235,308,284,250,341,217,232,278,247,225,267,296,271,323,0,0,0,0,0,0,0,0,Aspect,6,,,,,,,,,The,flat,was,very,old,and,dirty.,Even,when,Joe,was,cleaning,the,small,kitchen,smelled,like,old,rubbish.,?,?,?,?,?,?,?,?
German,132,15,x,Prog_EarlyClosure,x,Was the flat tidy?,,,,,,,,,2623,313,607,409,169,414,1047,384,255,315,354,407,336,294,443,531,2020,352,455,0,0,0,0,0,0,0,0,Aspect,6,,,,,,,,,The,flat,was,very,old,and,dirty.,Even,when,Joe,was,cleaning,the,small,kitchen,smelled,like,old,rubbish.,?,?,?,?,?,?,?,?
German,106,13,x,Simple_EarlyClosure,x,Was the flat tidy?,,,,,,,,,,413,1394,704,679,1620,509,672,729,692,726,679,589,760,713,881,863,641,623,0,0,0,0,0,0,0,0,Aspect,6,,,,,,,,,,The,flat,was,very,old,and,dirty.,Even,when,Joe,cleaned,the,small,kitchen,smelled,like,old,rubbish.,?,?,?,?,?,?,?,?
German,110,39,x,Simple_EarlyClosure,x,Was the flat tidy?,,,,,,,,,,330,299,296,287,387,329,314,505,270,222,723,265,211,521,288,401,327,210,0,0,0,0,0,0,0,0,Aspect,6,,,,,,,,,,The,flat,was,very,old,and,dirty.,Even,when,Joe,cleaned,the,small,kitchen,smelled,like,old,rubbish.,?,?,?,?,?,?,?,?
German,114,54,x,Simple_EarlyClosure,x,Was the flat tidy?,,,,,,,,,,216,191,241,216,209,233,191,286,217,205,206,221,192,163,313,253,201,291,0,0,0,0,0,0,0,0,Aspect,6,,,,,,,,,,The,flat,was,very,old,and,dirty.,Even,when,Joe,cleaned,the,small,kitchen,smelled,like,old,rubbish.,?,?,?,?,?,?,?,?
German,118,47,x,Simple_EarlyClosure,x,Was the flat tidy?,,,,,,,,,,455,288,325,511,368,374,400,458,311,534,457,411,439,479,499,478,536,496,0,0,0,0,0,0,0,0,Aspect,6,,,,,,,,,,The,flat,was,very,old,and,dirty.,Even,when,Joe,cleaned,the,small,kitchen,smelled,like,old,rubbish.,?,?,?,?,?,?,?,?
German,122,30,x,Simple_EarlyClosure,x,Was the flat tidy?,,,,,,,,,,606,298,430,268,207,227,576,470,299,188,340,236,200,332,232,286,495,502,0,0,0,0,0,0,0,0,Aspect,6,,,,,,,,,,The,flat,was,very,old,and,dirty.,Even,when,Joe,cleaned,the,small,kitchen,smelled,like,old,rubbish.,?,?,?,?,?,?,?,?
German,126,31,m,Simple_EarlyClosure,x,Was the flat tidy?,,,,,,,,,,440,639,468,491,590,555,657,619,643,638,598,713,727,1031,689,454,492,3845,0,0,0,0,0,0,0,0,Aspect,6,,,,,,,,,,The,flat,was,very,old,and,dirty.,Even,when,Joe,cleaned,the,small,kitchen,smelled,like,old,rubbish.,?,?,?,?,?,?,?,?
German,101,64,x,Prog_EarlyClosure,x,Did Tony hate to sing at parties?,,,,,,,,235,193,182,184,181,190,188,218,363,211,200,130,211,206,226,227,222,205,203,,,,,,,,,,Aspect,3,,,,,,,,Tony,and,his,friends,loved,to,sing,at,parties.,When,Tony,was,singing,the,drinking,song,sounded,like,opera.,,,,,,,,,
German,105,59,x,Prog_EarlyClosure,x,Did Tony hate to sing at parties?,,,,,,,,701,338,317,329,367,317,364,339,303,334,325,335,318,341,323,341,332,616,351,0,0,0,0,0,0,0,0,0,Aspect,3,,,,,,,,Tony,and,his,friends,loved,to,sing,at,parties.,When,Tony,was,singing,the,drinking,song,sounded,like,opera.,?,?,?,?,?,?,?,?,?
German,109,1,x,Prog_EarlyClosure,x,Did Tony hate to sing at parties?,,,,,,,,347,230,231,207,246,198,234,240,254,329,279,268,286,290,259,283,360,382,2638,0,0,0,0,0,0,0,0,0,Aspect,3,,,,,,,,Tony,and,his,friends,loved,to,sing,at,parties.,When,Tony,was,singing,the,drinking,song,sounded,like,opera.,?,?,?,?,?,?,?,?,?
German,113,52,x,Prog_EarlyClosure,x,Did Tony hate to sing at parties?,,,,,,,,1282,658,1800,448,693,929,744,570,1264,702,717,702,593,611,523,535,587,656,808,0,0,0,0,0,0,0,0,0,Aspect,3,,,,,,,,Tony,and,his,friends,loved,to,sing,at,parties.,When,Tony,was,singing,the,drinking,song,sounded,like,opera.,?,?,?,?,?,?,?,?,?
German,117,8,x,Prog_EarlyClosure,x,Did Tony hate to sing at parties?,,,,,,,,496,465,422,467,443,434,404,355,445,417,414,395,427,371,658,340,435,485,784,0,0,0,0,0,0,0,0,0,Aspect,3,,,,,,,,Tony,and,his,friends,loved,to,sing,at,parties.,When,Tony,was,singing,the,drinking,song,sounded,like,opera.,?,?,?,?,?,?,?,?,?
German,125,8,x,Prog_EarlyClosure,x,Did Tony hate to sing at parties?,,,,,,,,492,415,414,428,320,385,417,419,286,418,356,344,338,447,410,460,2050,501,1093,0,0,0,0,0,0,0,0,0,Aspect,3,,,,,,,,Tony,and,his,friends,loved,to,sing,at,parties.,When,Tony,was,singing,the,drinking,song,sounded,like,opera.,?,?,?,?,?,?,?,?,?
German,129,73,x,Prog_EarlyClosure,x,Did Tony hate to sing at parties?,,,,,,,,557,400,360,566,572,567,312,326,348,540,340,343,335,340,400,487,830,352,311,0,0,0,0,0,0,0,0,0,Aspect,3,,,,,,,,Tony,and,his,friends,loved,to,sing,at,parties.,When,Tony,was,singing,the,drinking,song,sounded,like,opera.,?,?,?,?,?,?,?,?,?
German,103,30,x,Simple_EarlyClosure,x,Did Tony hate to sing at parties?,,,,,,,,,400,305,306,321,361,809,298,357,372,357,330,395,393,434,614,471,482,1309,0,0,0,0,0,0,0,0,0,Aspect,3,,,,,,,,,Tony,and,his,friends,loved,to,sing,at,parties.,When,Tony,sang,the,drinking,song,sounded,like,opera.,?,?,?,?,?,?,?,?,?
German,111,70,x,Simple_EarlyClosure,x,Did Tony hate to sing at parties?,,,,,,,,,270,399,313,440,301,387,266,550,300,447,354,291,335,303,502,639,334,440,0,0,0,0,0,0,0,0,0,Aspect,3,,,,,,,,,Tony,and,his,friends,loved,to,sing,at,parties.,When,Tony,sang,the,drinking,song,sounded,like,opera.,?,?,?,?,?,?,?,?,?
German,115,41,x,Simple_EarlyClosure,x,Did Tony hate to sing at parties?,,,,,,,,,2111,403,324,546,360,450,399,555,644,639,243,352,451,628,726,1775,431,2186,0,0,0,0,0,0,0,0,0,Aspect,3,,,,,,,,,Tony,and,his,friends,loved,to,sing,at,parties.,When,Tony,sang,the,drinking,song,sounded,like,opera.,?,?,?,?,?,?,?,?,?
German,119,27,x,Simple_EarlyClosure,x,Did Tony hate to sing at parties?,,,,,,,,,343,274,384,295,354,234,231,232,332,455,216,329,288,290,366,310,909,363,0,0,0,0,0,0,0,0,0,Aspect,3,,,,,,,,,Tony,and,his,friends,loved,to,sing,at,parties.,When,Tony,sang,the,drinking,song,sounded,like,opera.,?,?,?,?,?,?,?,?,?
German,127,41,x,Simple_EarlyClosure,x,Did Tony hate to sing at parties?,,,,,,,,,379,337,402,299,379,367,483,359,330,410,385,351,379,361,374,392,490,509,0,0,0,0,0,0,0,0,0,Aspect,3,,,,,,,,,Tony,and,his,friends,loved,to,sing,at,parties.,When,Tony,sang,the,drinking,song,sounded,like,opera.,?,?,?,?,?,?,?,?,?
German,101,76,x,Prog_EarlyClosure,x,Did the tree stay steady?,270,254,652,258,254,418,457,323,248,309,266,201,359,205,203,219,226,299,440,229,580,239,251,260,398,211,231,,,,,,,,,Aspect,15,In,the,"garden,",a,boy,and,a,girl,wanted,to,go,up,into,the,tree-house.,While,the,girl,was,climbing,the,tall,tree,started,to,shake,dangerously.,,,,,,,,
German,105,44,x,Prog_EarlyClosure,x,Did the tree stay steady?,287,309,317,368,408,421,354,303,356,335,341,345,453,375,459,438,399,340,283,379,335,326,330,404,334,268,620,0,0,0,0,0,0,0,0,Aspect,15,In,the,"garden,",a,boy,and,a,girl,wanted,to,go,up,into,the,tree-house.,While,the,girl,was,climbing,the,tall,tree,started,to,shake,dangerously.,?,?,?,?,?,?,?,?
German,109,2,x,Prog_EarlyClosure,x,Did the tree stay steady?,335,240,272,298,306,312,279,352,259,258,356,316,342,277,294,472,294,301,392,381,342,355,339,362,391,303,397,0,0,0,0,0,0,0,0,Aspect,15,In,the,"garden,",a,boy,and,a,girl,wanted,to,go,up,into,the,tree-house.,While,the,girl,was,climbing,the,tall,tree,started,to,shake,dangerously.,?,?,?,?,?,?,?,?
German,113,44,x,Prog_EarlyClosure,x,Did the tree stay steady?,982,607,1290,1271,677,599,592,476,609,494,679,622,512,719,691,680,624,568,519,796,618,516,912,594,510,504,630,0,0,0,0,0,0,0,0,Aspect,15,In,the,"garden,",a,boy,and,a,girl,wanted,to,go,up,into,the,tree-house.,While,the,girl,was,climbing,the,tall,tree,started,to,shake,dangerously.,?,?,?,?,?,?,?,?
German,117,55,x,Prog_EarlyClosure,x,Did the tree stay steady?,287,228,189,262,213,186,211,226,221,238,226,254,182,250,288,198,232,198,235,205,249,240,235,232,250,223,400,0,0,0,0,0,0,0,0,Aspect,15,In,the,"garden,",a,boy,and,a,girl,wanted,to,go,up,into,the,tree-house.,While,the,girl,was,climbing,the,tall,tree,started,to,shake,dangerously.,?,?,?,?,?,?,?,?
German,125,72,x,Prog_EarlyClosure,x,Did the tree stay steady?,433,373,634,596,819,701,889,418,294,319,290,352,344,275,567,402,341,303,402,317,331,529,290,395,461,332,501,0,0,0,0,0,0,0,0,Aspect,15,In,the,"garden,",a,boy,and,a,girl,wanted,to,go,up,into,the,tree-house.,While,the,girl,was,climbing,the,tall,tree,started,to,shake,dangerously.,?,?,?,?,?,?,?,?
German,129,65,x,Prog_EarlyClosure,x,Did the tree stay steady?,407,400,370,474,313,309,368,281,327,346,380,301,373,326,828,360,305,320,323,506,322,373,360,536,366,369,560,0,0,0,0,0,0,0,0,Aspect,15,In,the,"garden,",a,boy,and,a,girl,wanted,to,go,up,into,the,tree-house.,While,the,girl,was,climbing,the,tall,tree,started,to,shake,dangerously.,?,?,?,?,?,?,?,?
German,103,12,x,Simple_EarlyClosure,x,Did the tree stay steady?,,555,861,1107,393,325,477,533,466,482,488,555,520,471,525,635,413,328,416,326,377,331,418,621,422,358,414,0,0,0,0,0,0,0,0,Aspect,15,,In,the,"garden,",a,boy,and,a,girl,wanted,to,go,up,into,the,tree-house.,While,the,girl,climbed,the,tall,tree,started,to,shake,dangerously.,?,?,?,?,?,?,?,?
German,111,7,x,Simple_EarlyClosure,x,Did the tree stay steady?,,362,621,482,363,343,289,335,283,286,368,316,337,436,371,703,413,290,278,365,482,396,32,362,522,417,382,0,0,0,0,0,0,0,0,Aspect,15,,In,the,"garden,",a,boy,and,a,girl,wanted,to,go,up,into,the,tree-house.,While,the,girl,climbed,the,tall,tree,started,to,shake,dangerously.,?,?,?,?,?,?,?,?
German,115,24,x,Simple_EarlyClosure,x,Did the tree stay steady?,,775,1757,936,650,337,317,330,518,391,337,335,572,397,342,692,646,328,346,481,372,352,473,1798,788,528,1130,0,0,0,0,0,0,0,0,Aspect,15,,In,the,"garden,",a,boy,and,a,girl,wanted,to,go,up,into,the,tree-house.,While,the,girl,climbed,the,tall,tree,started,to,shake,dangerously.,?,?,?,?,?,?,?,?
German,119,59,x,Simple_EarlyClosure,x,Did the tree stay steady?,,405,328,302,317,317,286,368,449,434,309,342,351,493,374,511,1119,263,266,308,308,317,367,311,354,299,307,0,0,0,0,0,0,0,0,Aspect,15,,In,the,"garden,",a,boy,and,a,girl,wanted,to,go,up,into,the,tree-house.,While,the,girl,climbed,the,tall,tree,started,to,shake,dangerously.,?,?,?,?,?,?,?,?
German,127,44,x,Simple_EarlyClosure,x,Did the tree stay steady?,,376,361,382,384,319,411,361,319,334,361,318,381,499,303,438,399,379,373,365,373,427,383,811,475,1693,400,0,0,0,0,0,0,0,0,Aspect,15,,In,the,"garden,",a,boy,and,a,girl,wanted,to,go,up,into,the,tree-house.,While,the,girl,climbed,the,tall,tree,started,to,shake,dangerously.,?,?,?,?,?,?,?,?
German,101,57,m,Prog_LateClosure,m,Did Alice and Jim decorate their house every year?,,,,,,,,,258,171,206,182,154,136,213,146,236,210,173,204,180,184,191,197,159,106,235,191,220,,,,,,,Aspect,2,,,,,,,,,Alice,and,Jim,decorated,their,house,every,year.,When,Alice,was,painting,the,kitchen,walls,they,were,covered,with,many,drops.,,,,,,
German,105,68,m,Prog_LateClosure,m,Did Alice and Jim decorate their house every year?,,,,,,,,,390,349,336,461,378,364,322,343,340,372,290,336,564,539,456,356,314,316,344,308,331,0,0,0,0,0,0,Aspect,2,,,,,,,,,Alice,and,Jim,decorated,their,house,every,year.,When,Alice,was,painting,the,kitchen,walls,they,were,covered,with,many,drops.,?,?,?,?,?,?
