ExperimentName,Group,Participant,Trial,Condition,Response,CompQuestion.RT,Correct,q1,Question,Question.RESP,Question.RT,S1.RT,S2.RT,S3.RT,S4.RT,S5.RT,S6.RT,S7.RT,S8.RT,S9.RT,S10.RT,S11.RT,S12.RT,S13.RT,S14.RT,S15.RT,S16.RT,S17.RT,S18.RT,S19.RT,S20.RT,S21.RT,S22.RT,S23.RT,S24.RT,S25.RT,S26.RT,S27.RT,S28.RT,S29.RT,S30.RT,S31.RT,S32.RT,S33.RT,S34.RT,S35.RT,Disambiguation,Spillover,Final,Study,Item,Violation,w1,w2,w3,w4,w5,w6,w7,w8,w9,w10,w11,w12,w13,w14,w15,w16,w17,w18,w19,w20,w21,w22,w23,w24,w25,w26,w27,w28,w29,w30,w31,w32,w33,w34,w35,Accuracy,Aspect,Type,average,StandardDeviation,outlier
TeAsP_List4_1,Croatian,240,17,Prog_EarlyClosure,m,2565,m,Did Alice and Jim decorate their house every year?,yes,,,,,,,,,,,450,533,418,771.5057772,372,482,654,771.5057772,417,290,272,347,365,364,342,331,374,483,384,771.5057772,,,,,,,,331,413.6666667,771.5057772,Aspect,2,yes,,,,,,,,,Alice,and,Jim,decorated,their,house,every,year.,When,Alice,was,painting,the,kitchen,walls,were,covered,with,many,drops.,?,?,?,?,?,?,?,1,Prog,EarlyClosure,375.5777778,197.9639997,0
TeAsP_List4_1,Croatian,228,14,Prog_EarlyClosure,m,4791,m,Did Alice and Jim decorate their house every year?,yes,,,,,,,,,,,428,377,390,487,318,390,295,784.6227655,332,507,415,463,408,517,655,476,633,590,344,784.6227655,,,,,,,,476,522.3333333,784.6227655,Aspect,2,yes,,,,,,,,,Alice,and,Jim,decorated,their,house,every,year.,When,Alice,was,painting,the,kitchen,walls,were,covered,with,many,drops.,?,?,?,?,?,?,?,1,Prog,EarlyClosure,395.8258427,194.3984614,0
TeAsP_List4_1,Croatian,224,17,Prog_EarlyClosure,m,2288,m,Did Alice and Jim decorate their house every year?,yes,,,,,,,,,,,413,373,428,569,435,449,455,448,398,425,371,787,558,568,651,475,491,470,414,537,,,,,,,,475,458.3333333,537,Aspect,2,yes,,,,,,,,,Alice,and,Jim,decorated,their,house,every,year.,When,Alice,was,painting,the,kitchen,walls,were,covered,with,many,drops.,?,?,?,?,?,?,?,1,Prog,EarlyClosure,618.854321,431.4276684,0
TeAsP_List4_1,Croatian,220,75,Prog_EarlyClosure,m,2553,m,Did Alice and Jim decorate their house every year?,yes,,,,,,,,,,,299,208,182,172,183,219,338,207,129,181,175,216,158,169,186,175,154,182,173,175,,,,,,,,175,169.6666667,175,Aspect,2,yes,,,,,,,,,Alice,and,Jim,decorated,their,house,every,year.,When,Alice,was,painting,the,kitchen,walls,were,covered,with,many,drops.,?,?,?,?,?,?,?,1,Prog,EarlyClosure,279.0846995,112.1186965,0
TeAsP_List4_1,Croatian,216,62,Prog_EarlyClosure,m,1992,m,Did Alice and Jim decorate their house every year?,yes,,,,,,,,,,,264,174,172,184,382,217,262,271,191,170,176,193,193,221,271,237,171,162,234,219,,,,,,,,237,189,219,Aspect,2,yes,,,,,,,,,Alice,and,Jim,decorated,their,house,every,year.,When,Alice,was,painting,the,kitchen,walls,were,covered,with,many,drops.,?,?,?,?,?,?,?,1,Prog,EarlyClosure,281.8082596,141.9028557,0
TeAsP_List4_1,Croatian,212,45,Prog_EarlyClosure,m,4332,m,Did Alice and Jim decorate their house every year?,yes,,,,,,,,,,,272,238,222,255,284,249,216,232,221,250,288,337,346,282,271,284,303,293,289,276,,,,,,,,284,295,276,Aspect,2,yes,,,,,,,,,Alice,and,Jim,decorated,their,house,every,year.,When,Alice,was,painting,the,kitchen,walls,were,covered,with,many,drops.,?,?,?,?,?,?,?,1,Prog,EarlyClosure,306.6814815,103.7341558,0
TeAsP_List4_1,Croatian,204,49,Prog_EarlyClosure,m,6599,m,Did Alice and Jim decorate their house every year?,yes,,,,,,,,,,,207,213,215,209,230,270,207,193,239,212,195,186,215,202,204,232,217,217,218,248,,,,,,,,232,217.3333333,248,Aspect,2,yes,,,,,,,,,Alice,and,Jim,decorated,their,house,every,year.,When,Alice,was,painting,the,kitchen,walls,were,covered,with,many,drops.,?,?,?,?,?,?,?,1,Prog,EarlyClosure,373.3989071,1800.288474,0
TeAsP_List1_1,Croatian,241,75,Prog_EarlyClosure,x,1365,x,Did Tony hate to sing at parties?,yes,,,,,,,,,,703,588,533,403,622,354,555,376,405,375,385,372,350,360,345,324,303,457,544,,,,,,,,,,303,457,544,Aspect,3,yes,,,,,,,,Tony,and,his,friends,loved,to,sing,at,parties.,When,Tony,was,singing,the,drinking,song,sounded,like,opera.,?,?,?,?,?,?,?,?,?,1,Prog,EarlyClosure,459.6756757,253.8155766,0
TeAsP_List1_1,Croatian,237,30,Prog_EarlyClosure,x,2546,x,Did Tony hate to sing at parties?,yes,,,,,,,,,,321,278,256,258,234,293,234,206,249,212,208,206,259,229,217,258,300,556.374962,556.374962,,,,,,,,,,300,556.374962,556.374962,Aspect,3,yes,,,,,,,,Tony,and,his,friends,loved,to,sing,at,parties.,When,Tony,was,singing,the,drinking,song,sounded,like,opera.,?,?,?,?,?,?,?,?,?,1,Prog,EarlyClosure,302.0259366,127.1745127,0
TeAsP_List1_1,Croatian,233,37,Prog_EarlyClosure,x,2864,x,Did Tony hate to sing at parties?,yes,,,,,,,,,,601,372,617,777,763,453,1098.293544,335,1098.293544,353,493,431,632,460,519,426,432,379,711,,,,,,,,,,432,379,711,Aspect,3,yes,,,,,,,,Tony,and,his,friends,loved,to,sing,at,parties.,When,Tony,was,singing,the,drinking,song,sounded,like,opera.,?,?,?,?,?,?,?,?,?,1,Prog,EarlyClosure,538.2945736,279.9994851,0
TeAsP_List1_1,Croatian,229,24,Prog_EarlyClosure,x,2018,x,Did Tony hate to sing at parties?,yes,,,,,,,,,,408,329,296,307,308,297,314,333,325,341,345,292,323,296,444,540.5708523,484,451,362,,,,,,,,,,484,451,362,Aspect,3,yes,,,,,,,,Tony,and,his,friends,loved,to,sing,at,parties.,When,Tony,was,singing,the,drinking,song,sounded,like,opera.,?,?,?,?,?,?,?,?,?,1,Prog,EarlyClosure,361.857513,89.35666966,0
TeAsP_List1_1,Croatian,225,31,Prog_EarlyClosure,x,6219,x,Did Tony hate to sing at parties?,yes,,,,,,,,,,276,269,273,278,303,266,381,289,762.8499175,277,319,291,250,242,314,297,320,283,271,,,,,,,,,,320,283,271,Aspect,3,yes,,,,,,,,Tony,and,his,friends,loved,to,sing,at,parties.,When,Tony,was,singing,the,drinking,song,sounded,like,opera.,?,?,?,?,?,?,?,?,?,1,Prog,EarlyClosure,377.5135135,192.668202,0
TeAsP_List1_1,Croatian,221,76,Prog_EarlyClosure,x,2230,x,Did Tony hate to sing at parties?,yes,,,,,,,,,,515,182,155,164,208,167,177,167,150,156,198,536,200,230,216,264,282,326,310,,,,,,,,,,282,326,310,Aspect,3,yes,,,,,,,,Tony,and,his,friends,loved,to,sing,at,parties.,When,Tony,was,singing,the,drinking,song,sounded,like,opera.,?,?,?,?,?,?,?,?,?,1,Prog,EarlyClosure,312.4889435,190.439384,0
TeAsP_List1_1,Croatian,217,60,Prog_EarlyClosure,x,5605,x,Did Tony hate to sing at parties?,yes,,,,,,,,,,469,372,442,452,415,388,371,362,671,522,333,478,517,395,487,427,554,385,363,,,,,,,,,,554,385,363,Aspect,3,yes,,,,,,,,Tony,and,his,friends,loved,to,sing,at,parties.,When,Tony,was,singing,the,drinking,song,sounded,like,opera.,?,?,?,?,?,?,?,?,?,1,Prog,EarlyClosure,468.8567251,262.4951572,0
TeAsP_List1_1,Croatian,213,54,Prog_EarlyClosure,x,2519,x,Did Tony hate to sing at parties?,yes,,,,,,,,,,465,338,368,526,568,560,865,419,1031.304968,496,444,415,456,709,412,529,551,498,415,,,,,,,,,,551,498,415,Aspect,3,yes,,,,,,,,Tony,and,his,friends,loved,to,sing,at,parties.,When,Tony,was,singing,the,drinking,song,sounded,like,opera.,?,?,?,?,?,?,?,?,?,1,Prog,EarlyClosure,540.6692506,245.3178588,0
TeAsP_List1_1,Croatian,209,20,Prog_EarlyClosure,x,2030,x,Did Tony hate to sing at parties?,yes,,,,,,,,,,645.494139,304,277,294,380,260,302,297,264,401,307,272,283,274,288,279,310,298,262,,,,,,,,,,310,298,262,Aspect,3,yes,,,,,,,,Tony,and,his,friends,loved,to,sing,at,parties.,When,Tony,was,singing,the,drinking,song,sounded,like,opera.,?,?,?,?,?,?,?,?,?,1,Prog,EarlyClosure,325.0930233,160.2005579,0
TeAsP_List1_1,Croatian,205,73,Prog_EarlyClosure,x,4105,x,Did Tony hate to sing at parties?,yes,,,,,,,,,,222,367,319,307,229,248,266,293,218,382,226,233,312,320,247,296,449,560,659,,,,,,,,,,449,560,659,Aspect,3,yes,,,,,,,,Tony,and,his,friends,loved,to,sing,at,parties.,When,Tony,was,singing,the,drinking,song,sounded,like,opera.,?,?,?,?,?,?,?,?,?,1,Prog,EarlyClosure,567.7616708,234.1332486,0
TeAsP_List1_1,Croatian,201,29,Prog_EarlyClosure,x,4174,x,Did Tony hate to sing at parties?,yes,,,,,,,,,,428,344,391,407,366,336,427,366,332,347,338,287,329,308,633,431,461,430,521,,,,,,,,,,461,430,521,Aspect,3,yes,,,,,,,,Tony,and,his,friends,loved,to,sing,at,parties.,When,Tony,was,singing,the,drinking,song,sounded,like,opera.,?,?,?,?,?,?,?,?,?,1,Prog,EarlyClosure,407.8931507,225.6052003,0
TeAsP_List2_1,Croatian,242,28,Prog_EarlyClosure,m,2711,m,Did John and Sam take their guns into the woods?,yes,,,,,,,,,315,279,298,270,286,334,492,343,298,338,324,267,298,306,280,279,341,294,388,363,344,344,,,,,,,,294,365,344,Aspect,4,yes,,,,,,,John,and,Sam,took,their,guns,out,into,the,woods.,As,John,was,hunting,the,frightened,rabbit,escaped,through,the,dark,trees.,?,?,?,?,?,?,?,1,Prog,EarlyClosure,365.3049451,127.8038198,0
TeAsP_List2_1,Croatian,234,35,Prog_EarlyClosure,m,1490,m,Did John and Sam take their guns into the woods?,yes,,,,,,,,,367,167,334,228,188,197,179,181,171,193,194,205,210,214,196,207,242,218,227,235,232,176,,,,,,,,218,231.3333333,176,Aspect,4,yes,,,,,,,John,and,Sam,took,their,guns,out,into,the,woods.,As,John,was,hunting,the,frightened,rabbit,escaped,through,the,dark,trees.,?,?,?,?,?,?,?,1,Prog,EarlyClosure,218.6675325,76.4408853,0
TeAsP_List2_1,Croatian,230,51,Prog_EarlyClosure,m,3259,m,Did John and Sam take their guns into the woods?,yes,,,,,,,,,713,701,1200,418,678,307,1871,649,433,1971.610581,448,773,439,380,375,660,1589,1190,379,377,333,1101,,,,,,,,1190,363,1101,Aspect,4,yes,,,,,,,John,and,Sam,took,their,guns,out,into,the,woods.,As,John,was,hunting,the,frightened,rabbit,escaped,through,the,dark,trees.,?,?,?,?,?,?,?,1,Prog,EarlyClosure,742.4581281,614.5762263,0
TeAsP_List2_1,Croatian,226,40,Prog_EarlyClosure,m,1456,m,Did John and Sam take their guns into the woods?,yes,,,,,,,,,127,155,137,141,135,284.5556254,150,269,180,118,134,153,135,161,141,161,191,187,166,175,142,174,,,,,,,,187,161,174,Aspect,4,yes,,,,,,,John,and,Sam,took,their,guns,out,into,the,woods.,As,John,was,hunting,the,frightened,rabbit,escaped,through,the,dark,trees.,?,?,?,?,?,?,?,1,Prog,EarlyClosure,182.1441176,51.20575388,0
TeAsP_List2_1,Croatian,222,77,Prog_EarlyClosure,m,2912,m,Did John and Sam take their guns into the woods?,yes,,,,,,,,,173,221,191,205,175,186,420,183,499.0966072,168,191,202,188,189,174,182,170,196,185,185,234,226,,,,,,,,196,201.3333333,226,Aspect,4,yes,,,,,,,John,and,Sam,took,their,guns,out,into,the,woods.,As,John,was,hunting,the,frightened,rabbit,escaped,through,the,dark,trees.,?,?,?,?,?,?,?,1,Prog,EarlyClosure,280.6043956,109.2461058,0
TeAsP_List2_1,Croatian,214,74,Prog_EarlyClosure,m,2203,m,Did John and Sam take their guns into the woods?,yes,,,,,,,,,390,390,602.5855002,305,302,317,305,291,273,304,289,242,325,328,312,279,294,316,316,304,273,273,,,,,,,,316,297.6666667,273,Aspect,4,yes,,,,,,,John,and,Sam,took,their,guns,out,into,the,woods.,As,John,was,hunting,the,frightened,rabbit,escaped,through,the,dark,trees.,?,?,?,?,?,?,?,1,Prog,EarlyClosure,355.9646739,123.3104131,0
TeAsP_List2_1,Croatian,210,37,Prog_EarlyClosure,m,2541,m,Did John and Sam take their guns into the woods?,yes,,,,,,,,,318,219,351,281,234,218,287,275,235,641,384,349,375,457,335,554,546,423,519,379,346,512,,,,,,,,423,414.6666667,512,Aspect,4,yes,,,,,,,John,and,Sam,took,their,guns,out,into,the,woods.,As,John,was,hunting,the,frightened,rabbit,escaped,through,the,dark,trees.,?,?,?,?,?,?,?,1,Prog,EarlyClosure,475.3333333,208.8737832,0
TeAsP_List2_1,Croatian,206,36,Prog_EarlyClosure,m,2583,m,Did John and Sam take their guns into the woods?,yes,,,,,,,,,340,325,328,319,357,327,346,350,420,928.2466509,592,701,478,483,456,600,511,614,674,485,353,326,,,,,,,,614,504,326,Aspect,4,yes,,,,,,,John,and,Sam,took,their,guns,out,into,the,woods.,As,John,was,hunting,the,frightened,rabbit,escaped,through,the,dark,trees.,?,?,?,?,?,?,?,1,Prog,EarlyClosure,472.1160221,228.0653144,0
TeAsP_List2_1,Croatian,202,9,Prog_EarlyClosure,m,2848,m,Did John and Sam take their guns into the woods?,yes,,,,,,,,,537,384,283,290,556.4808982,237,406,268,253,246,327,407,240,166,556.4808982,386,556.4808982,189,322,243,298,254,,,,,,,,189,287.6666667,254,Aspect,4,yes,,,,,,,John,and,Sam,took,their,guns,out,into,the,woods.,As,John,was,hunting,the,frightened,rabbit,escaped,through,the,dark,trees.,?,?,?,?,?,?,?,1,Prog,EarlyClosure,300.8211921,127.8298531,0
TeAsP_List3_1,Croatian,243,56,Prog_EarlyClosure,x,4953,x,Did Susan and her children live near her parents?,yes,,,,,,,,,,340,289,343,289,299,307,296,310,339,413,281,357,338,432,398,385,447,390,336,334,324,,,,,,,,447,353.3333333,324,Aspect,5,yes,,,,,,,,Susan,and,her,children,lived,far,from,her,parents.,When,Susan,was,visiting,the,friendly,neighbors,wanted,to,have,a,party.,?,?,?,?,?,?,?,1,Prog,EarlyClosure,343.0591133,108.6073574,0
TeAsP_List3_1,Croatian,239,54,Prog_EarlyClosure,x,3107,x,Did Susan and her children live near her parents?,yes,,,,,,,,,,384,288,279,294,230,299,274,315,270,371,504,377,400,336,298,432,424,434,340,319,336,,,,,,,,424,364.3333333,336,Aspect,5,yes,,,,,,,,Susan,and,her,children,lived,far,from,her,parents.,When,Susan,was,visiting,the,friendly,neighbors,wanted,to,have,a,party.,?,?,?,?,?,?,?,1,Prog,EarlyClosure,396.2420749,287.6443212,0
TeAsP_List3_1,Croatian,235,45,Prog_EarlyClosure,x,2441,x,Did Susan and her children live near her parents?,yes,,,,,,,,,,275,379,281,433,451,256,269,284,302,377,271,318,285,338,317,629,325,286,356,349,938.5217029,,,,,,,,325,330.3333333,938.5217029,Aspect,5,yes,,,,,,,,Susan,and,her,children,lived,far,from,her,parents.,When,Susan,was,visiting,the,friendly,neighbors,wanted,to,have,a,party.,?,?,?,?,?,?,?,1,Prog,EarlyClosure,418.2062663,260.1577183,0
TeAsP_List3_1,Croatian,227,12,Prog_EarlyClosure,x,2438,x,Did Susan and her children live near her parents?,yes,,,,,,,,,,452,552,469,604,429,770.5773027,415,605,486,690,392,684,519,462,587,539,639,744,650,438,770.5773027,,,,,,,,639,610.6666667,770.5773027,Aspect,5,yes,,,,,,,,Susan,and,her,children,lived,far,from,her,parents.,When,Susan,was,visiting,the,friendly,neighbors,wanted,to,have,a,party.,?,?,?,?,?,?,?,1,Prog,EarlyClosure,410.6415094,179.9678966,0
TeAsP_List3_1,Croatian,223,66,Prog_EarlyClosure,x,5086,x,Did Susan and her children live near her parents?,yes,,,,,,,,,,351,379,327,212,326,229,346,234,402,377,361,315,547,295,321,384,410,575,278,283,263,,,,,,,,410,378.6666667,263,Aspect,5,yes,,,,,,,,Susan,and,her,children,lived,far,from,her,parents.,When,Susan,was,visiting,the,friendly,neighbors,wanted,to,have,a,party.,?,?,?,?,?,?,?,1,Prog,EarlyClosure,376.0714286,123.2881495,0
TeAsP_List3_1,Croatian,219,54,Prog_EarlyClosure,x,5715,x,Did Susan and her children live near her parents?,yes,,,,,,,,,,400,961.813231,961.813231,704,912,945,436,291,393,357,366,355,289,274,361,392,321,379,269,323,317,,,,,,,,321,323.6666667,317,Aspect,5,yes,,,,,,,,Susan,and,her,children,lived,far,from,her,parents.,When,Susan,was,visiting,the,friendly,neighbors,wanted,to,have,a,party.,?,?,?,?,?,?,?,1,Prog,EarlyClosure,482.5234375,239.6448967,0
TeAsP_List3_1,Croatian,211,6,Prog_EarlyClosure,x,8820,x,Did Susan and her children live near her parents?,yes,,,,,,,,,,1196,820,968,921,988,819,775,767,837,1049,968,970,819,1254,1445,920,934,1130,940,845,786,,,,,,,,934,971.6666667,786,Aspect,5,yes,,,,,,,,Susan,and,her,children,lived,far,from,her,parents.,When,Susan,was,visiting,the,friendly,neighbors,wanted,to,have,a,party.,?,?,?,?,?,?,?,1,Prog,EarlyClosure,724.9505495,427.4856051,0
TeAsP_List3_1,Croatian,203,80,Prog_EarlyClosure,x,6656,x,Did Susan and her children live near her parents?,yes,,,,,,,,,,318,192,252,219,327,314,264,298,254,421,352,309,479,419,287,239,312,457,244,378,321,,,,,,,,312,359.6666667,321,Aspect,5,yes,,,,,,,,Susan,and,her,children,lived,far,from,her,parents.,When,Susan,was,visiting,the,friendly,neighbors,wanted,to,have,a,party.,?,?,?,?,?,?,?,1,Prog,EarlyClosure,341.56,117.633453,0
TeAsP_List4_1,Croatian,240,37,Prog_EarlyClosure,x,1315,x,Was the flat tidy?,yes,,,,,,,,,,,268,300,259,222,249,381,331,771.5057772,360,338,308,323,349,434,326,442,320,233,330,,,,,,,,,442,276.5,330,Aspect,6,yes,,,,,,,,,The,flat,was,very,old,and,dirty.,Even,when,Joe,was,cleaning,the,small,kitchen,smelled,like,old,rubbish.,?,?,?,?,?,?,?,?,1,Prog,EarlyClosure,375.5777778,197.9639997,0
TeAsP_List4_1,Croatian,236,18,Prog_EarlyClosure,x,4292,x,Was the flat tidy?,yes,,,,,,,,,,,446,363,738,330,451,332,801.5713795,363,228,372,289,196,347,323,254,376,456,412,234,,,,,,,,,376,434,234,Aspect,6,yes,,,,,,,,,The,flat,was,very,old,and,dirty.,Even,when,Joe,was,cleaning,the,small,kitchen,smelled,like,old,rubbish.,?,?,?,?,?,?,?,?,1,Prog,EarlyClosure,407.2205882,197.1753956,0
TeAsP_List4_1,Croatian,232,62,Prog_EarlyClosure,x,2398,x,Was the flat tidy?,yes,,,,,,,,,,,817.8833928,579,397,452,346,578,676,407,582,230,339,533,253,218,402,589,271,353,361,,,,,,,,,589,312,361,Aspect,6,yes,,,,,,,,,The,flat,was,very,old,and,dirty.,Even,when,Joe,was,cleaning,the,small,kitchen,smelled,like,old,rubbish.,?,?,?,?,?,?,?,?,1,Prog,EarlyClosure,428.4,194.7416964,0
TeAsP_List4_1,Croatian,228,46,Prog_EarlyClosure,x,1346,x,Was the flat tidy?,yes,,,,,,,,,,,359,404,264,253,374,340,431,471,389,287,307,240,363,380,289,303,317,289,348,,,,,,,,,303,303,348,Aspect,6,yes,,,,,,,,,The,flat,was,very,old,and,dirty.,Even,when,Joe,was,cleaning,the,small,kitchen,smelled,like,old,rubbish.,?,?,?,?,?,?,?,?,1,Prog,EarlyClosure,395.8258427,194.3984614,0
TeAsP_List4_1,Croatian,224,5,Prog_EarlyClosure,x,1356,x,Was the flat tidy?,yes,,,,,,,,,,,523,482,383,435,459,444,481,426,400,490,403,439,424,421,445,500,540,468,1228,,,,,,,,,500,504,1228,Aspect,6,yes,,,,,,,,,The,flat,was,very,old,and,dirty.,Even,when,Joe,was,cleaning,the,small,kitchen,smelled,like,old,rubbish.,?,?,?,?,?,?,?,?,1,Prog,EarlyClosure,618.854321,431.4276684,0
TeAsP_List4_1,Croatian,220,46,Prog_EarlyClosure,x,952,x,Was the flat tidy?,yes,,,,,,,,,,,230,196,196,211,140,330,225,405,176,193,387,239,192,222,224,341,246,197,342,,,,,,,,,341,221.5,342,Aspect,6,yes,,,,,,,,,The,flat,was,very,old,and,dirty.,Even,when,Joe,was,cleaning,the,small,kitchen,smelled,like,old,rubbish.,?,?,?,?,?,?,?,?,1,Prog,EarlyClosure,279.0846995,112.1186965,0
TeAsP_List4_1,Croatian,216,4,Prog_EarlyClosure,x,1422,x,Was the flat tidy?,yes,,,,,,,,,,,345,208,199,382,337,298,204,459,249,302,355,283,456,341,372,354,350,307,366,,,,,,,,,354,328.5,366,Aspect,6,yes,,,,,,,,,The,flat,was,very,old,and,dirty.,Even,when,Joe,was,cleaning,the,small,kitchen,smelled,like,old,rubbish.,?,?,?,?,?,?,?,?,1,Prog,EarlyClosure,281.8082596,141.9028557,0
TeAsP_List4_1,Croatian,212,38,Prog_EarlyClosure,x,2055,x,Was the flat tidy?,yes,,,,,,,,,,,349,300,310,462,322,292,330,383,293,285,312,306,335,334,317,319,303,323,388,,,,,,,,,319,313,388,Aspect,6,yes,,,,,,,,,The,flat,was,very,old,and,dirty.,Even,when,Joe,was,cleaning,the,small,kitchen,smelled,like,old,rubbish.,?,?,?,?,?,?,?,?,1,Prog,EarlyClosure,306.6814815,103.7341558,0
TeAsP_List4_1,Croatian,204,69,Prog_EarlyClosure,x,1877,x,Was the flat tidy?,yes,,,,,,,,,,,150,142,182,184,190,157,147,137,135,166,161,158,171,137,148,137,160,175,202,,,,,,,,,137,167.5,202,Aspect,6,yes,,,,,,,,,The,flat,was,very,old,and,dirty.,Even,when,Joe,was,cleaning,the,small,kitchen,smelled,like,old,rubbish.,?,?,?,?,?,?,?,?,1,Prog,EarlyClosure,373.3989071,1800.288474,0
TeAsP_List1_1,Croatian,241,11,Prog_EarlyClosure,m,4619,m,Did the couple want to leave?,yes,,,,,,431,433,394,403,390,332,396,583,377,345,291,571,829,355,194,369,296,275,268,555,301,390,395,508,,,,,,,,,301,392.5,508,Aspect,7,?,,,,The,couple,sitting,next,to,me,at,the,restaurant,got,up,to,leave.,As,I,was,watching,the,drunk,man,tripped,over,my,chair.,?,?,?,?,?,?,?,?,1,Prog,EarlyClosure,459.6756757,253.8155766,0
TeAsP_List1_1,Croatian,237,81,Prog_EarlyClosure,m,2566,m,Did the couple want to leave?,yes,,,,,,332,194,278,261,218,233,233,241,233,271,265,257,265,265,247,259,244,273,234,246,285,308,306,237,,,,,,,,,285,307,237,Aspect,7,?,,,,The,couple,sitting,next,to,me,at,the,restaurant,got,up,to,leave.,As,I,was,watching,the,drunk,man,tripped,over,my,chair.,?,?,?,?,?,?,?,?,1,Prog,EarlyClosure,302.0259366,127.1745127,0
TeAsP_List1_1,Croatian,233,17,Prog_EarlyClosure,m,4201,m,Did the couple want to leave?,yes,,,,,,802,654,1098.293544,615,478,403,465,453,574,646,730,407,1098.293544,444,490,1098.293544,592,587,634,399,472,372,341,362,,,,,,,,,472,356.5,362,Aspect,7,?,,,,The,couple,sitting,next,to,me,at,the,restaurant,got,up,to,leave.,As,I,was,watching,the,drunk,man,tripped,over,my,chair.,?,?,?,?,?,?,?,?,1,Prog,EarlyClosure,538.2945736,279.9994851,0
TeAsP_List1_1,Croatian,229,9,Prog_EarlyClosure,m,3583,m,Did the couple want to leave?,yes,,,,,,527,458,321,305,278,324,266,270,398,344,305,303,296,315,341,366,369,401,540.5708523,350,340,302,371,291,,,,,,,,,340,336.5,291,Aspect,7,?,,,,The,couple,sitting,next,to,me,at,the,restaurant,got,up,to,leave.,As,I,was,watching,the,drunk,man,tripped,over,my,chair.,?,?,?,?,?,?,?,?,1,Prog,EarlyClosure,361.857513,89.35666966,0
TeAsP_List1_1,Croatian,225,3,Prog_EarlyClosure,m,2663,m,Did the couple want to leave?,yes,,,,,,762.8499175,308,362,463,348,283,343,370,445,343,307,425,350,483,271,335,384,293,594,313,371,407,697,268,,,,,,,,,371,552,268,Aspect,7,?,,,,The,couple,sitting,next,to,me,at,the,restaurant,got,up,to,leave.,As,I,was,watching,the,drunk,man,tripped,over,my,chair.,?,?,?,?,?,?,?,?,1,Prog,EarlyClosure,377.5135135,192.668202,0
TeAsP_List1_1,Croatian,221,84,Prog_EarlyClosure,m,3177,m,Did the couple want to leave?,yes,,,,,,258,222,171,185,184,137,156,171,184,194,231,190,192,182,178,175,183,152,190,247,236,253,292,214,,,,,,,,,236,272.5,214,Aspect,7,?,,,,The,couple,sitting,next,to,me,at,the,restaurant,got,up,to,leave.,As,I,was,watching,the,drunk,man,tripped,over,my,chair.,?,?,?,?,?,?,?,?,1,Prog,EarlyClosure,312.4889435,190.439384,0
TeAsP_List1_1,Croatian,217,49,Prog_EarlyClosure,m,1772,m,Did the couple want to leave?,yes,,,,,,797,756,993.8470395,390,355,350,359,622,441,396,974,754,993.8470395,380,296,286,300,335,344,277,347,330,311,336,,,,,,,,,347,320.5,336,Aspect,7,?,,,,The,couple,sitting,next,to,me,at,the,restaurant,got,up,to,leave.,As,I,was,watching,the,drunk,man,tripped,over,my,chair.,?,?,?,?,?,?,?,?,1,Prog,EarlyClosure,468.8567251,262.4951572,0
TeAsP_List1_1,Croatian,213,9,Prog_EarlyClosure,m,2386,m,Did the couple want to leave?,yes,,,,,,623,615,479,417,553,335,696,563,545,438,1031.304968,577,724,621,801,598,675,425,467,423,1031.304968,563,388,1031.304968,,,,,,,,,1031.304968,475.5,1031.305,Aspect,7,?,,,,The,couple,sitting,next,to,me,at,the,restaurant,got,up,to,leave.,As,I,was,watching,the,drunk,man,tripped,over,my,chair.,?,?,?,?,?,?,?,?,1,Prog,EarlyClosure,540.6692506,245.3178588,0
TeAsP_List1_1,Croatian,209,21,Prog_EarlyClosure,m,5220,m,Did the couple want to leave?,yes,,,,,,409,645.494139,449,304,263,264,242,231,300,274,260,263,232,394,226,292,312,278,286,306,377,300,316,301,,,,,,,,,377,308,301,Aspect,7,?,,,,The,couple,sitting,next,to,me,at,the,restaurant,got,up,to,leave.,As,I,was,watching,the,drunk,man,tripped,over,my,chair.,?,?,?,?,?,?,?,?,1,Prog,EarlyClosure,325.0930233,160.2005579,0
TeAsP_List1_1,Croatian,205,41,Prog_EarlyClosure,m,5457,m,Did the couple want to leave?,yes,,,,,,1036.028168,599,644,578,416,378,503,344,703,908,352,649,981,498,562,477,530,478,522,512,517,545,422,433,,,,,,,,,517,483.5,433,Aspect,7,?,,,,The,couple,sitting,next,to,me,at,the,restaurant,got,up,to,leave.,As,I,was,watching,the,drunk,man,tripped,over,my,chair.,?,?,?,?,?,?,?,?,1,Prog,EarlyClosure,567.7616708,234.1332486,0
TeAsP_List1_1,Croatian,201,4,Prog_EarlyClosure,m,3070,m,Did the couple want to leave?,yes,,,,,,431,532,550,537,319,342,366,410,379,373,399,395,709,411,364,400,398,386,410,393,441,401,436,550,,,,,,,,,441,418.5,550,Aspect,7,?,,,,The,couple,sitting,next,to,me,at,the,restaurant,got,up,to,leave.,As,I,was,watching,the,drunk,man,tripped,over,my,chair.,?,?,?,?,?,?,?,?,1,Prog,EarlyClosure,407.8931507,225.6052003,0
TeAsP_List2_1,Croatian,242,66,Prog_EarlyClosure,x,3362,x,Were there three Italian chefs working at the restaurant?,yes,,,,,,,,,,216,256,244,182,315,389,359,317,323,297,271,294,262,235,293,216,322,322,303,292,265,,,,,,,,322,305.6666667,265,Aspect,8,?,,,,,,,,There,were,two,Italian,chefs,working,in,the,restaurant.,Because,Mario,was,cooking,the,fresh,pasta,was,made,to,real,perfection.,?,?,?,?,?,?,?,1,Prog,EarlyClosure,365.3049451,127.8038198,0
TeAsP_List2_1,Croatian,230,20,Prog_EarlyClosure,x,3546,x,Were there three Italian chefs working at the restaurant?,yes,,,,,,,,,,547,483,527,1971.610581,921,562,1625,350,1971.610581,1282,348,535,523,402,637,1014,968,387,437,383,941,,,,,,,,968,402.3333333,941,Aspect,8,?,,,,,,,,There,were,two,Italian,chefs,working,in,the,restaurant.,Because,Mario,was,cooking,the,fresh,pasta,was,made,to,real,perfection.,?,?,?,?,?,?,?,1,Prog,EarlyClosure,742.4581281,614.5762263,0
TeAsP_List2_1,Croatian,226,57,Prog_EarlyClosure,x,2402,x,Were there three Italian chefs working at the restaurant?,yes,,,,,,,,,,232,161,166,134,142,145,144,284.5556254,165,281,189,253,137,156,143,162,173,154,160,180,157,,,,,,,,173,164.6666667,157,Aspect,8,?,,,,,,,,There,were,two,Italian,chefs,working,in,the,restaurant.,Because,Mario,was,cooking,the,fresh,pasta,was,made,to,real,perfection.,?,?,?,?,?,?,?,1,Prog,EarlyClosure,182.1441176,51.20575388,0
TeAsP_List2_1,Croatian,214,33,Prog_EarlyClosure,x,2257,x,Were there three Italian chefs working at the restaurant?,yes,,,,,,,,,,303,327,316,344,269,326,349,504,363,290,262,292,288,280,302,300,298,313,264,318,296,,,,,,,,298,298.3333333,296,Aspect,8,?,,,,,,,,There,were,two,Italian,chefs,working,in,the,restaurant.,Because,Mario,was,cooking,the,fresh,pasta,was,made,to,real,perfection.,?,?,?,?,?,?,?,1,Prog,EarlyClosure,355.9646739,123.3104131,0
TeAsP_List2_1,Croatian,206,26,Prog_EarlyClosure,x,3078,x,Were there three Italian chefs working at the restaurant?,yes,,,,,,,,,,488,601,610,523,826,629,677,508,928.2466509,624,928.2466509,928.2466509,439,365,412,348,351,377,394,418,487,,,,,,,,351,396.3333333,487,Aspect,8,?,,,,,,,,There,were,two,Italian,chefs,working,in,the,restaurant.,Because,Mario,was,cooking,the,fresh,pasta,was,made,to,real,perfection.,?,?,?,?,?,?,?,1,Prog,EarlyClosure,472.1160221,228.0653144,0
TeAsP_List3_1,Croatian,243,26,Prog_EarlyClosure,m,3390,m,Were there different kinds of vehicles at the company?,yes,,,,,,,,,445,369,280,375,407,298,346,283,308,244,560.2738281,286,276,304,289,286,292,384,417,344,344,325,,,,,,,,384,368.3333333,325,Aspect,9,?,,,,,,,There,were,many,different,kinds,of,vehicles,at,the,company.,When,George,was,driving,the,big,lorry,made,loud,and,strange,noises.,?,?,?,?,?,?,?,1,Prog,EarlyClosure,343.0591133,108.6073574,0
TeAsP_List3_1,Croatian,239,55,Prog_EarlyClosure,m,3012,m,Were there different kinds of vehicles at the company?,yes,,,,,,,,,355,309,295,279,350,345,558,289,236,298,711,308,305,337,309,508,333,353,440,971.5307173,437,353,,,,,,,,353,616.1769058,353,Aspect,9,?,,,,,,,There,were,many,different,kinds,of,vehicles,at,the,company.,When,George,was,driving,the,big,lorry,made,loud,and,strange,noises.,?,?,?,?,?,?,?,1,Prog,EarlyClosure,396.2420749,287.6443212,0
TeAsP_List3_1,Croatian,235,35,Prog_EarlyClosure,m,9891,m,Were there different kinds of vehicles at the company?,yes,,,,,,,,,284,247,261,334,457,330,689,313,330,456,377,317,347,607,335,325,323,424,708,320,370,391,,,,,,,,424,466,391,Aspect,9,?,,,,,,,There,were,many,different,kinds,of,vehicles,at,the,company.,When,George,was,driving,the,big,lorry,made,loud,and,strange,noises.,?,?,?,?,?,?,?,1,Prog,EarlyClosure,418.2062663,260.1577183,0
TeAsP_List3_1,Croatian,231,30,Prog_EarlyClosure,m,3130,m,Were there different kinds of vehicles at the company?,yes,,,,,,,,,555.0759754,442,526,356,397,335,253,297,288,287,313,263,319,246,245,280,302,301,332,319,291,340,,,,,,,,301,314,340,Aspect,9,?,,,,,,,There,were,many,different,kinds,of,vehicles,at,the,company.,When,George,was,driving,the,big,lorry,made,loud,and,strange,noises.,?,?,?,?,?,?,?,1,Prog,EarlyClosure,331.183908,111.9460337,0
TeAsP_List3_1,Croatian,227,80,Prog_EarlyClosure,m,4019,m,Were there different kinds of vehicles at the company?,yes,,,,,,,,,252,300,311,431,267,342,338,326,313,454,337,577,507,698,307,331,294,293,339,290,218,351,,,,,,,,293,282.3333333,351,Aspect,9,?,,,,,,,There,were,many,different,kinds,of,vehicles,at,the,company.,When,George,was,driving,the,big,lorry,made,loud,and,strange,noises.,?,?,?,?,?,?,?,1,Prog,EarlyClosure,410.6415094,179.9678966,0
TeAsP_List3_1,Croatian,223,74,Prog_EarlyClosure,m,8010,m,Were there different kinds of vehicles at the company?,yes,,,,,,,,,304,452,345,357,370,338,349,427,450,333,415,509,338,361,419,296,499,376,407,376,322,328,,,,,,,,376,368.3333333,328,Aspect,9,?,,,,,,,There,were,many,different,kinds,of,vehicles,at,the,company.,When,George,was,driving,the,big,lorry,made,loud,and,strange,noises.,?,?,?,?,?,?,?,1,Prog,EarlyClosure,376.0714286,123.2881495,0
TeAsP_List3_1,Croatian,219,72,Prog_EarlyClosure,m,4021,m,Were there different kinds of vehicles at the company?,yes,,,,,,,,,337,289,331,527,409,411,343,308,625,372,378,519,412,346,277,343,231,370,720,532,368,396,,,,,,,,370,540,396,Aspect,9,?,,,,,,,There,were,many,different,kinds,of,vehicles,at,the,company.,When,George,was,driving,the,big,lorry,made,loud,and,strange,noises.,?,?,?,?,?,?,?,1,Prog,EarlyClosure,482.5234375,239.6448967,0
TeAsP_List3_1,Croatian,215,57,Prog_EarlyClosure,m,2164,m,Were there different kinds of vehicles at the company?,yes,,,,,,,,,362,358,545.3233829,377,468,396,545.3233829,308,264,331,352,321,287,308,303,298,317,324,522,274,303,308,,,,,,,,324,366.3333333,308,Aspect,9,?,,,,,,,There,were,many,different,kinds,of,vehicles,at,the,company.,When,George,was,driving,the,big,lorry,made,loud,and,strange,noises.,?,?,?,?,?,?,?,1,Prog,EarlyClosure,357.7938719,93.76475552,0
TeAsP_List3_1,Croatian,211,13,Prog_EarlyClosure,m,3468,m,Were there different kinds of vehicles at the company?,yes,,,,,,,,,1216,738,753,1241,1579.92176,1420,1579.92176,1579.92176,513,893,559,846,413,740,463,425,408,521,486,696,629,566,,,,,,,,521,603.6666667,566,Aspect,9,?,,,,,,,There,were,many,different,kinds,of,vehicles,at,the,company.,When,George,was,driving,the,big,lorry,made,loud,and,strange,noises.,?,?,?,?,?,?,?,1,Prog,EarlyClosure,724.9505495,427.4856051,0
TeAsP_List3_1,Croatian,207,49,Prog_EarlyClosure,m,4052,m,Were there different kinds of vehicles at the company?,yes,,,,,,,,,528,323,264,304,291,298,337,277,324,381,412,322,329,389,474,323,382,402,463,405,378,378,,,,,,,,402,415.3333333,378,Aspect,9,?,,,,,,,There,were,many,different,kinds,of,vehicles,at,the,company.,When,George,was,driving,the,big,lorry,made,loud,and,strange,noises.,?,?,?,?,?,?,?,1,Prog,EarlyClosure,323.0146628,131.1412228,0
TeAsP_List3_1,Croatian,203,40,Prog_EarlyClosure,m,4924,m,Were there different kinds of vehicles at the company?,yes,,,,,,,,,364,251,259,192,318,259,251,520,229,378,320,519,257,327,212,268,195,358,207,350,576.8269059,190,,,,,,,,358,377.942302,190,Aspect,9,?,,,,,,,There,were,many,different,kinds,of,vehicles,at,the,company.,When,George,was,driving,the,big,lorry,made,loud,and,strange,noises.,?,?,?,?,?,?,?,1,Prog,EarlyClosure,341.56,117.633453,0
TeAsP_List4_1,Croatian,240,63,Prog_EarlyClosure,m,2322,m,Did the opera company have three different conductors?,yes,,,,,,,,,,,334,249,343,356,343,390,665,535,516,447,340,282,267,239,267,299,314,285,301,311,,,,,,,,299,300,311,Aspect,10,?,,,,,,,,,The,opera,company,had,three,different,conductors.,When,Mr.,Osaka,was,conducting,the,symphony,orchestra,played,better,than,anyone,else.,?,?,?,?,?,?,?,1,Prog,EarlyClosure,375.5777778,197.9639997,0
TeAsP_List4_1,Croatian,236,45,Prog_EarlyClosure,m,4216,m,Did the opera company have three different conductors?,yes,,,,,,,,,,,336,409,409,344,308,324,410,801.5713795,337,269,801.5713795,316,454,364,307,350,334,304,301,268,,,,,,,,350,313,268,Aspect,10,?,,,,,,,,,The,opera,company,had,three,different,conductors.,When,Mr.,Osaka,was,conducting,the,symphony,orchestra,played,better,than,anyone,else.,?,?,?,?,?,?,?,1,Prog,EarlyClosure,407.2205882,197.1753956,0
TeAsP_List4_1,Croatian,232,9,Prog_EarlyClosure,m,2769,m,Did the opera company have three different conductors?,yes,,,,,,,,,,,817.8833928,610,589,448,634,529,817.8833928,787,339,406,366,583,347,364,358,356,326,332,366,343,,,,,,,,356,341.3333333,343,Aspect,10,?,,,,,,,,,The,opera,company,had,three,different,conductors.,When,Mr.,Osaka,was,conducting,the,symphony,orchestra,played,better,than,anyone,else.,?,?,?,?,?,?,?,1,Prog,EarlyClosure,428.4,194.7416964,0
TeAsP_List4_1,Croatian,228,45,Prog_EarlyClosure,m,2797,m,Did the opera company have three different conductors?,yes,,,,,,,,,,,492,342,784.6227655,409,302,345,784.6227655,467,326,334,292,397,288,362,310,284,289,290,278,265,,,,,,,,284,285.6666667,265,Aspect,10,?,,,,,,,,,The,opera,company,had,three,different,conductors.,When,Mr.,Osaka,was,conducting,the,symphony,orchestra,played,better,than,anyone,else.,?,?,?,?,?,?,?,1,Prog,EarlyClosure,395.8258427,194.3984614,0
TeAsP_List4_1,Croatian,224,20,Prog_EarlyClosure,m,2246,m,Did the opera company have three different conductors?,yes,,,,,,,,,,,413,382,490,506,446,513,843,527,540,584,539,610,717,1211,701,852,683,737,513,633,,,,,,,,852,644.3333333,633,Aspect,10,?,,,,,,,,,The,opera,company,had,three,different,conductors.,When,Mr.,Osaka,was,conducting,the,symphony,orchestra,played,better,than,anyone,else.,?,?,?,?,?,?,?,1,Prog,EarlyClosure,618.854321,431.4276684,0
TeAsP_List4_1,Croatian,216,78,Prog_EarlyClosure,m,2158,m,Did the opera company have three different conductors?,yes,,,,,,,,,,,174,260,256,206,366,565.613971,270,323,213,224,213,179,197,290,257,183,183,168,265,283,,,,,,,,183,205.3333333,283,Aspect,10,?,,,,,,,,,The,opera,company,had,three,different,conductors.,When,Mr.,Osaka,was,conducting,the,symphony,orchestra,played,better,than,anyone,else.,?,?,?,?,?,?,?,1,Prog,EarlyClosure,281.8082596,141.9028557,0
TeAsP_List4_1,Croatian,212,47,Prog_EarlyClosure,m,2406,m,Did the opera company have three different conductors?,yes,,,,,,,,,,,304,257,270,364,514.1497932,287,297,288,254,279,305,318,345,282,323,306,277,337,301,274,,,,,,,,306,305,274,Aspect,10,?,,,,,,,,,The,opera,company,had,three,different,conductors.,When,Mr.,Osaka,was,conducting,the,symphony,orchestra,played,better,than,anyone,else.,?,?,?,?,?,?,?,1,Prog,EarlyClosure,306.6814815,103.7341558,0
TeAsP_List4_1,Croatian,204,14,Prog_EarlyClosure,m,10626,m,Did the opera company have three different conductors?,yes,,,,,,,,,,,287,270,294,255,287,281,278,265,272,325,321,555,673,605,506,401,316,517,377,336,,,,,,,,401,403.3333333,336,Aspect,10,?,,,,,,,,,The,opera,company,had,three,different,conductors.,When,Mr.,Osaka,was,conducting,the,symphony,orchestra,played,better,than,anyone,else.,?,?,?,?,?,?,?,1,Prog,EarlyClosure,373.3989071,1800.288474,0
TeAsP_List1_1,Croatian,241,6,Prog_EarlyClosure,m,857,m,Was the town safe?,yes,,,,,,,,,637,823,695,830,958,446,505,478,850,494,589,808,378,860,677,491,599,411,650,382,404,,,,,,,,,411,516,404,Aspect,11,?,,,,,,,On,Saturday,"nights,",the,police,department,was,very,busy.,When,the,sheriff,was,patrolling,the,whole,town,was,safe,and,secure.,?,?,?,?,?,?,?,?,1,Prog,EarlyClosure,459.6756757,253.8155766,0
TeAsP_List1_1,Croatian,237,54,Prog_EarlyClosure,m,1306,m,Was the town safe?,yes,,,,,,,,,288,221,180,192,306,223,315,300,259,291,265,293,305,290,254,253,252,257,226,215,253,,,,,,,,,257,220.5,253,Aspect,11,?,,,,,,,On,Saturday,"nights,",the,police,department,was,very,busy.,When,the,sheriff,was,patrolling,the,whole,town,was,safe,and,secure.,?,?,?,?,?,?,?,?,1,Prog,EarlyClosure,302.0259366,127.1745127,0
TeAsP_List1_1,Croatian,233,58,Prog_EarlyClosure,m,1773,m,Was the town safe?,yes,,,,,,,,,1098.293544,1098.293544,535,399,452,553,343,400,301,429,326,473,314,674,346,357,361,387,582,345,652,,,,,,,,,387,463.5,652,Aspect,11,?,,,,,,,On,Saturday,"nights,",the,police,department,was,very,busy.,When,the,sheriff,was,patrolling,the,whole,town,was,safe,and,secure.,?,?,?,?,?,?,?,?,1,Prog,EarlyClosure,538.2945736,279.9994851,0
TeAsP_List1_1,Croatian,229,53,Prog_EarlyClosure,m,2619,m,Was the town safe?,yes,,,,,,,,,320,299,396,317,321,287,377,346,327,311,314,313,291,323,331,397,540.5708523,310,308,335,372,,,,,,,,,310,321.5,372,Aspect,11,?,,,,,,,On,Saturday,"nights,",the,police,department,was,very,busy.,When,the,sheriff,was,patrolling,the,whole,town,was,safe,and,secure.,?,?,?,?,?,?,?,?,1,Prog,EarlyClosure,361.857513,89.35666966,0
TeAsP_List1_1,Croatian,225,21,Prog_EarlyClosure,m,1953,m,Was the town safe?,yes,,,,,,,,,326,762.8499175,308,430,392,256,288,304,318,351,304,300,308,408,310,328,762.8499175,319,496,322,313,,,,,,,,,319,409,313,Aspect,11,?,,,,,,,On,Saturday,"nights,",the,police,department,was,very,busy.,When,the,sheriff,was,patrolling,the,whole,town,was,safe,and,secure.,?,?,?,?,?,?,?,?,1,Prog,EarlyClosure,377.5135135,192.668202,0
TeAsP_List1_1,Croatian,221,5,Prog_EarlyClosure,m,5553,m,Was the town safe?,yes,,,,,,,,,693.3677114,432,407,372,300,304,286,264,268,490,303,247,283,288,309,354,326,334,343,361,585,,,,,,,,,334,352,585,Aspect,11,?,,,,,,,On,Saturday,"nights,",the,police,department,was,very,busy.,When,the,sheriff,was,patrolling,the,whole,town,was,safe,and,secure.,?,?,?,?,?,?,?,?,1,Prog,EarlyClosure,312.4889435,190.439384,0
TeAsP_List1_1,Croatian,213,35,Prog_EarlyClosure,m,2198,m,Was the town safe?,yes,,,,,,,,,668,648,856,478,444,766,417,364,963,483,469,551,345,749,376,530,353,579,1031.304968,459,587,,,,,,,,,579,745.1524841,587,Aspect,11,?,,,,,,,On,Saturday,"nights,",the,police,department,was,very,busy.,When,the,sheriff,was,patrolling,the,whole,town,was,safe,and,secure.,?,?,?,?,?,?,?,?,1,Prog,EarlyClosure,540.6692506,245.3178588,0
TeAsP_List1_1,Croatian,209,61,Prog_EarlyClosure,m,1525,m,Was the town safe?,yes,,,,,,,,,280,645.494139,250,645.494139,264,263,250,287,258,412,351,321,247,205,349,393,232,256,319,265,305,,,,,,,,,256,292,305,Aspect,11,?,,,,,,,On,Saturday,"nights,",the,police,department,was,very,busy.,When,the,sheriff,was,patrolling,the,whole,town,was,safe,and,secure.,?,?,?,?,?,?,?,?,1,Prog,EarlyClosure,325.0930233,160.2005579,0
TeAsP_List1_1,Croatian,205,32,Prog_EarlyClosure,m,3627,m,Was the town safe?,yes,,,,,,,,,455,454,675,937,447,494,454,1014,452,594,389,593,438,805,450,400,461,459,511,509,649,,,,,,,,,459,510,649,Aspect,11,?,,,,,,,On,Saturday,"nights,",the,police,department,was,very,busy.,When,the,sheriff,was,patrolling,the,whole,town,was,safe,and,secure.,?,?,?,?,?,?,?,?,1,Prog,EarlyClosure,567.7616708,234.1332486,0
TeAsP_List1_1,Croatian,201,6,Prog_EarlyClosure,m,1137,m,Was the town safe?,yes,,,,,,,,,271,379,418,345,388,294,384,362,367,387,447,338,366,300,377,384,325,348,338,317,334,,,,,,,,,348,327.5,334,Aspect,11,?,,,,,,,On,Saturday,"nights,",the,police,department,was,very,busy.,When,the,sheriff,was,patrolling,the,whole,town,was,safe,and,secure.,?,?,?,?,?,?,?,?,1,Prog,EarlyClosure,407.8931507,225.6052003,0
TeAsP_List2_1,Croatian,234,50,Prog_EarlyClosure,m,1255,m,Did the horse jump a fence?,yes,,,,,,,,,,,326,159,205,188,125,187,178,190,159,204,198,181,183,188,175,169,149,182,204,199,214,,,,,,,169,183.5,214,Aspect,12,?,,,,,,,,,Jenny,and,Sam,went,out,for,a,ride.,While,Jenny,was,riding,the,young,horse,decided,to,jump,a,high,fence.,?,?,?,?,?,?,1,Prog,EarlyClosure,218.6675325,76.4408853,0
TeAsP_List2_1,Croatian,230,72,Prog_EarlyClosure,m,2542,m,Did the horse jump a fence?,yes,,,,,,,,,,,590,410,313,1077,451,404,242,1971.610581,400,276,253,856,252,620,593,1971.610581,224,308,342,353,413,,,,,,,1971.610581,306.75,413,Aspect,12,?,,,,,,,,,Jenny,and,Sam,went,out,for,a,ride.,While,Jenny,was,riding,the,young,horse,decided,to,jump,a,high,fence.,?,?,?,?,?,?,1,Prog,EarlyClosure,742.4581281,614.5762263,0
TeAsP_List2_1,Croatian,226,17,Prog_EarlyClosure,m,1019,m,Did the horse jump a fence?,yes,,,,,,,,,,,185,186,161,182,190,156,230,155,223,144,201,198,204,179,209,214,218,284.5556254,166,219,199,,,,,,,214,221.8889064,199,Aspect,12,?,,,,,,,,,Jenny,and,Sam,went,out,for,a,ride.,While,Jenny,was,riding,the,young,horse,decided,to,jump,a,high,fence.,?,?,?,?,?,?,1,Prog,EarlyClosure,182.1441176,51.20575388,0
TeAsP_List2_1,Croatian,222,5,Prog_EarlyClosure,m,1185,m,Did the horse jump a fence?,yes,,,,,,,,,,,399,367,320,345,273,313,317,333,343,367,499.0966072,333,382,349,365,363,359,323,326,332,362,,,,,,,363,335,362,Aspect,12,?,,,,,,,,,Jenny,and,Sam,went,out,for,a,ride.,While,Jenny,was,riding,the,young,horse,decided,to,jump,a,high,fence.,?,?,?,?,?,?,1,Prog,EarlyClosure,280.6043956,109.2461058,0
TeAsP_List2_1,Croatian,214,24,Prog_EarlyClosure,m,1471,m,Did the horse jump a fence?,yes,,,,,,,,,,,393,292,374,431,270,328,299,359,311,303,364,317,329,336,319,299,333,324,401,308,312,,,,,,,299,341.5,312,Aspect,12,?,,,,,,,,,Jenny,and,Sam,went,out,for,a,ride.,While,Jenny,was,riding,the,young,horse,decided,to,jump,a,high,fence.,?,?,?,?,?,?,1,Prog,EarlyClosure,355.9646739,123.3104131,0
TeAsP_List2_1,Croatian,206,6,Prog_EarlyClosure,m,1404,m,Did the horse jump a fence?,yes,,,,,,,,,,,486,475,422,406,436,436,478,426,928.2466509,928.2466509,818,566,532,494,928.2466509,889,524,626,524,595,585,,,,,,,889,567.25,585,Aspect,12,?,,,,,,,,,Jenny,and,Sam,went,out,for,a,ride.,While,Jenny,was,riding,the,young,horse,decided,to,jump,a,high,fence.,?,?,?,?,?,?,1,Prog,EarlyClosure,472.1160221,228.0653144,0
TeAsP_List2_1,Croatian,202,47,Prog_EarlyClosure,m,1529,m,Did the horse jump a fence?,yes,,,,,,,,,,,241,205,190,214,135,182,172,188,218,412,188,198,373,201,206,237,235,556.4808982,375,190,335,,,,,,,237,339.1202246,335,Aspect,12,?,,,,,,,,,Jenny,and,Sam,went,out,for,a,ride.,While,Jenny,was,riding,the,young,horse,decided,to,jump,a,high,fence.,?,?,?,?,?,?,1,Prog,EarlyClosure,300.8211921,127.8298531,0
TeAsP_List3_1,Croatian,243,43,Prog_EarlyClosure,x,2595,x,Were the workers lazy?,yes,,,,,,,,,412,271,294,290,258,265,293,293,262,285,380,279,297,296,343,433,276,335,341,560.2738281,,,,,,,,,,335,341,560.2738,Aspect,13,?,,,,,,,Maggie,and,Fred,were,the,two,supervisors,at,the,factory.,When,Maggie,was,supervising,the,night,staff,worked,extremely,efficiently.,?,?,?,?,?,?,?,?,?,1,Prog,EarlyClosure,343.0591133,108.6073574,0
TeAsP_List3_1,Croatian,239,39,Prog_EarlyClosure,x,2848,x,Were the workers lazy?,yes,,,,,,,,,400,255,300,466,399,341,374,829,288,233,971.5307173,431,267,476,372,377,387,402,971.5307173,469,,,,,,,,,,402,971.5307,469,Aspect,13,?,,,,,,,Maggie,and,Fred,were,the,two,supervisors,at,the,factory.,When,Maggie,was,supervising,the,night,staff,worked,extremely,efficiently.,?,?,?,?,?,?,?,?,?,1,Prog,EarlyClosure,396.2420749,287.6443212,0
TeAsP_List3_1,Croatian,235,33,Prog_EarlyClosure,x,8116,x,Were the workers lazy?,yes,,,,,,,,,296,301,439,445,375,358,755,375,298,314,393,310,369,520,344,330,422,487,489,938.5217029,,,,,,,,,,487,489,938.5217,Aspect,13,?,,,,,,,Maggie,and,Fred,were,the,two,supervisors,at,the,factory.,When,Maggie,was,supervising,the,night,staff,worked,extremely,efficiently.,?,?,?,?,?,?,?,?,?,1,Prog,EarlyClosure,418.2062663,260.1577183,0
TeAsP_List3_1,Croatian,231,43,Prog_EarlyClosure,x,5292,x,Were the workers lazy?,yes,,,,,,,,,216,223,212,201,260,244,268,279,294,237,256,258,234,259,289,555.0759754,555.0759754,278,282,309,,,,,,,,,,278,282,309,Aspect,13,?,,,,,,,Maggie,and,Fred,were,the,two,supervisors,at,the,factory.,When,Maggie,was,supervising,the,night,staff,worked,extremely,efficiently.,?,?,?,?,?,?,?,?,?,1,Prog,EarlyClosure,331.183908,111.9460337,0
TeAsP_List3_1,Croatian,223,76,Prog_EarlyClosure,x,3292,x,Were the workers lazy?,yes,,,,,,,,,401,370,369,496,255,252,381,292,288,379,327,379,301,275,301,330,351,377,384,315,,,,,,,,,,377,384,315,Aspect,13,?,,,,,,,Maggie,and,Fred,were,the,two,supervisors,at,the,factory.,When,Maggie,was,supervising,the,night,staff,worked,extremely,efficiently.,?,?,?,?,?,?,?,?,?,1,Prog,EarlyClosure,376.0714286,123.2881495,0
TeAsP_List3_1,Croatian,219,1,Prog_EarlyClosure,x,2056,x,Were the workers lazy?,yes,,,,,,,,,437,459,408,447,447,450,495,524,527,489,582,468,513,526,522,543,658,580,961.813231,961.813231,,,,,,,,,,580,961.8132,961.8132,Aspect,13,?,,,,,,,Maggie,and,Fred,were,the,two,supervisors,at,the,factory.,When,Maggie,was,supervising,the,night,staff,worked,extremely,efficiently.,?,?,?,?,?,?,?,?,?,1,Prog,EarlyClosure,482.5234375,239.6448967,0
TeAsP_List3_1,Croatian,215,48,Prog_EarlyClosure,x,1537,x,Were the workers lazy?,yes,,,,,,,,,383,375,293,265,344,304,461,348,310,339,443,434,301,388,406,328,442,430,464,306,,,,,,,,,,430,464,306,Aspect,13,?,,,,,,,Maggie,and,Fred,were,the,two,supervisors,at,the,factory.,When,Maggie,was,supervising,the,night,staff,worked,extremely,efficiently.,?,?,?,?,?,?,?,?,?,1,Prog,EarlyClosure,357.7938719,93.76475552,0
TeAsP_List3_1,Croatian,211,14,Prog_EarlyClosure,x,4518,x,Were the workers lazy?,yes,,,,,,,,,837,495,629,558,440,461,649,1579.92176,917,854,1168,648,511,787,476,517,396,658,720,1171,,,,,,,,,,658,720,1171,Aspect,13,?,,,,,,,Maggie,and,Fred,were,the,two,supervisors,at,the,factory.,When,Maggie,was,supervising,the,night,staff,worked,extremely,efficiently.,?,?,?,?,?,?,?,?,?,1,Prog,EarlyClosure,724.9505495,427.4856051,0
TeAsP_List3_1,Croatian,207,4,Prog_EarlyClosure,x,1936,x,Were the workers lazy?,yes,,,,,,,,,281,295,244,278,278,280,297,288,245,265,342,265,258,272,293,278,280,269,286,289,,,,,,,,,,269,286,289,Aspect,13,?,,,,,,,Maggie,and,Fred,were,the,two,supervisors,at,the,factory.,When,Maggie,was,supervising,the,night,staff,worked,extremely,efficiently.,?,?,?,?,?,?,?,?,?,1,Prog,EarlyClosure,323.0146628,131.1412228,0
TeAsP_List3_1,Croatian,203,5,Prog_EarlyClosure,x,2592,x,Were the workers lazy?,yes,,,,,,,,,436,386,356,351,319,301,576.8269059,463,576.8269059,550,576.8269059,576.8269059,332,460,437,330,371,429,419,516,,,,,,,,,,429,419,516,Aspect,13,?,,,,,,,Maggie,and,Fred,were,the,two,supervisors,at,the,factory.,When,Maggie,was,supervising,the,night,staff,worked,extremely,efficiently.,?,?,?,?,?,?,?,?,?,1,Prog,EarlyClosure,341.56,117.633453,0
TeAsP_List4_1,Croatian,240,82,Prog_EarlyClosure,x,1966,x,Did the ice-cream drop down the boyÍs pants?,yes,,,,,,,,,206,195,171,233,271,342,222,199,154,172,259,190,198,190,202,264,309,499,288,294,272,291,,,,,,,,499,284.6666667,291,Aspect,14,?,,,,,,,In,the,"park,",two,children,were,eating,some,ice-cream.,As,the,boy,was,eating,the,chocolate,ice-cream,dropped,down,his,clean,shirt.,?,?,?,?,?,?,?,1,Prog,EarlyClosure,375.5777778,197.9639997,0
TeAsP_List4_1,Croatian,236,8,Prog_EarlyClosure,x,4293,x,Did the ice-cream drop down the boyÍs pants?,yes,,,,,,,,,526,434,373,541,377,603,801.5713795,438,611,516,511,523,437,429,473,450,446,418,416,439,391,418,,,,,,,,418,415.3333333,418,Aspect,14,?,,,,,,,In,the,"park,",two,children,were,eating,some,ice-cream.,As,the,boy,was,eating,the,chocolate,ice-cream,dropped,down,his,clean,shirt.,?,?,?,?,?,?,?,1,Prog,EarlyClosure,407.2205882,197.1753956,0
TeAsP_List4_1,Croatian,232,30,Prog_EarlyClosure,x,2993,x,Did the ice-cream drop down the boyÍs pants?,yes,,,,,,,,,665,322,315,472,394,389,425,364,563,354,334,363,338,396,355,412,393,384,433,333,375,381,,,,,,,,384,380.3333333,381,Aspect,14,?,,,,,,,In,the,"park,",two,children,were,eating,some,ice-cream.,As,the,boy,was,eating,the,chocolate,ice-cream,dropped,down,his,clean,shirt.,?,?,?,?,?,?,?,1,Prog,EarlyClosure,428.4,194.7416964,0
TeAsP_List4_1,Croatian,228,3,Prog_EarlyClosure,x,2653,x,Did the ice-cream drop down the boyÍs pants?,yes,,,,,,,,,399,373,429,390,388,346,390,353,622,496,349,351,317,405,301,590,784.6227655,554,632,609,625,724,,,,,,,,554,622,724,Aspect,14,?,,,,,,,In,the,"park,",two,children,were,eating,some,ice-cream.,As,the,boy,was,eating,the,chocolate,ice-cream,dropped,down,his,clean,shirt.,?,?,?,?,?,?,?,1,Prog,EarlyClosure,395.8258427,194.3984614,0
TeAsP_List4_1,Croatian,224,26,Prog_EarlyClosure,x,2801,x,Did the ice-cream drop down the boyÍs pants?,yes,,,,,,,,,363,358,466,425,481,439,405,524,422,470,520,555,516,569,483,643,509,468,535,440,547,594,,,,,,,,468,507.3333333,594,Aspect,14,?,,,,,,,In,the,"park,",two,children,were,eating,some,ice-cream.,As,the,boy,was,eating,the,chocolate,ice-cream,dropped,down,his,clean,shirt.,?,?,?,?,?,?,?,1,Prog,EarlyClosure,618.854321,431.4276684,0
TeAsP_List4_1,Croatian,220,58,Prog_EarlyClosure,x,2318,x,Did the ice-cream drop down the boyÍs pants?,yes,,,,,,,,,185,170,158,155,176,198,154,353,252,219,211,180,187,199,176,220,172,193,167,195,364,238,,,,,,,,193,242,238,Aspect,14,?,,,,,,,In,the,"park,",two,children,were,eating,some,ice-cream.,As,the,boy,was,eating,the,chocolate,ice-cream,dropped,down,his,clean,shirt.,?,?,?,?,?,?,?,1,Prog,EarlyClosure,279.0846995,112.1186965,0
TeAsP_List4_1,Croatian,216,32,Prog_EarlyClosure,x,3664,x,Did the ice-cream drop down the boyÍs pants?,yes,,,,,,,,,306,229,215,259,321,372,254,516,353,504,436,319,301,220,245,307,276,258,288,250,283,344,,,,,,,,258,273.6666667,344,Aspect,14,?,,,,,,,In,the,"park,",two,children,were,eating,some,ice-cream.,As,the,boy,was,eating,the,chocolate,ice-cream,dropped,down,his,clean,shirt.,?,?,?,?,?,?,?,1,Prog,EarlyClosure,281.8082596,141.9028557,0
TeAsP_List4_1,Croatian,212,17,Prog_EarlyClosure,x,3138,x,Did the ice-cream drop down the boyÍs pants?,yes,,,,,,,,,310,330,313,329,417,340,430,333,378,443,322,316,313,320,284,283,342,300,318,342,355,344,,,,,,,,300,338.3333333,344,Aspect,14,?,,,,,,,In,the,"park,",two,children,were,eating,some,ice-cream.,As,the,boy,was,eating,the,chocolate,ice-cream,dropped,down,his,clean,shirt.,?,?,?,?,?,?,?,1,Prog,EarlyClosure,306.6814815,103.7341558,0
TeAsP_List4_1,Croatian,204,37,Prog_EarlyClosure,x,7348,x,Did the ice-cream drop down the boyÍs pants?,yes,,,,,,,,,210,184,170,186,197,197,252,277,154,169,157,156,221,172,176,167,205,197,199,193,315,401,,,,,,,,197,235.6666667,401,Aspect,14,?,,,,,,,In,the,"park,",two,children,were,eating,some,ice-cream.,As,the,boy,was,eating,the,chocolate,ice-cream,dropped,down,his,clean,shirt.,?,?,?,?,?,?,?,1,Prog,EarlyClosure,373.3989071,1800.288474,0
TeAsP_List1_1,Croatian,241,28,Prog_EarlyClosure,x,2252,x,Did the tree stay steady?,yes,,,253,491,475,251,288,227,244,298,234,240,229,240,261,253,209,455,206,199,304,246,542,309,388,303,366,345,524,,,,,,,,,303,355.5,524,Aspect,15,?,In,the,"garden,",a,boy,and,a,girl,wanted,to,go,up,into,the,tree-house.,While,the,girl,was,climbing,the,tall,tree,started,to,shake,dangerously.,?,?,?,?,?,?,?,?,1,Prog,EarlyClosure,459.6756757,253.8155766,0
TeAsP_List1_1,Croatian,237,8,Prog_EarlyClosure,x,1652,x,Did the tree stay steady?,yes,,,462,216,319,299,258,277,315,275,310,302,235,281,274,292,556.374962,275,229,231,242,245,255,322,294,345,263,243,363,,,,,,,,,345,253,363,Aspect,15,?,In,the,"garden,",a,boy,and,a,girl,wanted,to,go,up,into,the,tree-house.,While,the,girl,was,climbing,the,tall,tree,started,to,shake,dangerously.,?,?,?,?,?,?,?,?,1,Prog,EarlyClosure,302.0259366,127.1745127,0
TeAsP_List1_1,Croatian,233,53,Prog_EarlyClosure,x,1600,x,Did the tree stay steady?,yes,,,366,431,703,435,405,538,416,459,369,414,381,384,386,345,759,553,812,495,402,407,475,358,335,1098.293544,372,451,1036,,,,,,,,,1098.293544,411.5,1036,Aspect,15,?,In,the,"garden,",a,boy,and,a,girl,wanted,to,go,up,into,the,tree-house.,While,the,girl,was,climbing,the,tall,tree,started,to,shake,dangerously.,?,?,?,?,?,?,?,?,1,Prog,EarlyClosure,538.2945736,279.9994851,0
TeAsP_List1_1,Croatian,229,39,Prog_EarlyClosure,x,1215,x,Did the tree stay steady?,yes,,,332,375,330,380,397,356,353,339,362,319,345,334,370,326,327,370,355,379,398,347,375,348,394,422,397,372,361,,,,,,,,,422,384.5,361,Aspect,15,?,In,the,"garden,",a,boy,and,a,girl,wanted,to,go,up,into,the,tree-house.,While,the,girl,was,climbing,the,tall,tree,started,to,shake,dangerously.,?,?,?,?,?,?,?,?,1,Prog,EarlyClosure,361.857513,89.35666966,0
TeAsP_List1_1,Croatian,225,47,Prog_EarlyClosure,x,1910,x,Did the tree stay steady?,yes,,,242,354,288,267,261,250,284,304,263,294,245,311,307,255,399,310,314,245,257,276,264,285,314,444,235,230,445,,,,,,,,,444,232.5,445,Aspect,15,?,In,the,"garden,",a,boy,and,a,girl,wanted,to,go,up,into,the,tree-house.,While,the,girl,was,climbing,the,tall,tree,started,to,shake,dangerously.,?,?,?,?,?,?,?,?,1,Prog,EarlyClosure,377.5135135,192.668202,0
TeAsP_List1_1,Croatian,221,55,Prog_EarlyClosure,x,1661,x,Did the tree stay steady?,yes,,,219,232,441,250,250,387,250,233,209,194,211,241,247,212,212,441,229,169,173,180,296,250,208,296,244,247,261,,,,,,,,,296,245.5,261,Aspect,15,?,In,the,"garden,",a,boy,and,a,girl,wanted,to,go,up,into,the,tree-house.,While,the,girl,was,climbing,the,tall,tree,started,to,shake,dangerously.,?,?,?,?,?,?,?,?,1,Prog,EarlyClosure,312.4889435,190.439384,0
TeAsP_List1_1,Croatian,217,12,Prog_EarlyClosure,x,1596,x,Did the tree stay steady?,yes,,,374,366,370,489,296,269,276,317,342,342,357,341,340,317,312,391,321,305,326,376,304,305,327,348,361,358,491,,,,,,,,,348,359.5,491,Aspect,15,?,In,the,"garden,",a,boy,and,a,girl,wanted,to,go,up,into,the,tree-house.,While,the,girl,was,climbing,the,tall,tree,started,to,shake,dangerously.,?,?,?,?,?,?,?,?,1,Prog,EarlyClosure,468.8567251,262.4951572,0
TeAsP_List1_1,Croatian,213,53,Prog_EarlyClosure,x,4174,x,Did the tree stay steady?,yes,,,414,377,626,324,623,322,345,378,380,366,360,399,450,373,585,426,341,334,417,465,585,350,363,587,308,391,509,,,,,,,,,587,349.5,509,Aspect,15,?,In,the,"garden,",a,boy,and,a,girl,wanted,to,go,up,into,the,tree-house.,While,the,girl,was,climbing,the,tall,tree,started,to,shake,dangerously.,?,?,?,?,?,?,?,?,1,Prog,EarlyClosure,540.6692506,245.3178588,0
TeAsP_List1_1,Croatian,209,74,Prog_EarlyClosure,x,1719,x,Did the tree stay steady?,yes,,,338,301,190,178,288,192,300,244,162,275,214,188,179,407,448,267,177,190,278,195,181,160,292,517,291,358,474,,,,,,,,,517,324.5,474,Aspect,15,?,In,the,"garden,",a,boy,and,a,girl,wanted,to,go,up,into,the,tree-house.,While,the,girl,was,climbing,the,tall,tree,started,to,shake,dangerously.,?,?,?,?,?,?,?,?,1,Prog,EarlyClosure,325.0930233,160.2005579,0
TeAsP_List1_1,Croatian,205,30,Prog_EarlyClosure,x,2892,x,Did the tree stay steady?,yes,,,373,378,579,832,700,448,535,435,469,490,477,486,511,527,669,657,482,781,395,681,505,512,553,522,436,576,619,,,,,,,,,522,506,619,Aspect,15,?,In,the,"garden,",a,boy,and,a,girl,wanted,to,go,up,into,the,tree-house.,While,the,girl,was,climbing,the,tall,tree,started,to,shake,dangerously.,?,?,?,?,?,?,?,?,1,Prog,EarlyClosure,567.7616708,234.1332486,0
TeAsP_List1_1,Croatian,201,76,Prog_EarlyClosure,x,1295,x,Did the tree stay steady?,yes,,,446,340,515,391,393,441,323,318,334,346,270,332,335,366,381,458,794,364,333,300,324,302,355,377,384,372,468,,,,,,,,,377,378,468,Aspect,15,?,In,the,"garden,",a,boy,and,a,girl,wanted,to,go,up,into,the,tree-house.,While,the,girl,was,climbing,the,tall,tree,started,to,shake,dangerously.,?,?,?,?,?,?,?,?,1,Prog,EarlyClosure,407.8931507,225.6052003,0
TeAsP_List2_1,Croatian,242,14,Prog_EarlyClosure,m,1696,m,Did the furniture look expensive?,yes,,,,,,,,,,383,345,323,398,334,348,490,620.9125846,441,389,348,459,418,353,409,351,420,548,370,423,,,,,,,,,420,459,423,Aspect,16,?,,,,,,,,Sarah,and,Jane,owned,a,shop,selling,old,furniture.,When,Sarah,was,polishing,the,cheap,furniture,looked,new,and,expensive.,?,?,?,?,?,?,?,?,1,Prog,EarlyClosure,365.3049451,127.8038198,0
TeAsP_List2_1,Croatian,234,66,Prog_EarlyClosure,m,958,m,Did the furniture look expensive?,yes,,,,,,,,,,253,188,199,184,200,200,132,202,179,336,179,176,148,173,194,177,199,207,220,227,,,,,,,,,199,213.5,227,Aspect,16,?,,,,,,,,Sarah,and,Jane,owned,a,shop,selling,old,furniture.,When,Sarah,was,polishing,the,cheap,furniture,looked,new,and,expensive.,?,?,?,?,?,?,?,?,1,Prog,EarlyClosure,218.6675325,76.4408853,0
TeAsP_List2_1,Croatian,230,7,Prog_EarlyClosure,m,2471,m,Did the furniture look expensive?,yes,,,,,,,,,,1096,960,1971.610581,434,1615,1474,1225,1623,1971.610581,1471,1375,552,676,734,1436,1552,796,545,654,656,,,,,,,,,796,599.5,656,Aspect,16,?,,,,,,,,Sarah,and,Jane,owned,a,shop,selling,old,furniture.,When,Sarah,was,polishing,the,cheap,furniture,looked,new,and,expensive.,?,?,?,?,?,?,?,?,1,Prog,EarlyClosure,742.4581281,614.5762263,0
TeAsP_List2_1,Croatian,226,63,Prog_EarlyClosure,m,4261,m,Did the furniture look expensive?,yes,,,,,,,,,,125,163,164,145,178,144,170,136,145,172,144,181,160,148,156,284.5556254,166,146,172,147,,,,,,,,,166,159,147,Aspect,16,?,,,,,,,,Sarah,and,Jane,owned,a,shop,selling,old,furniture.,When,Sarah,was,polishing,the,cheap,furniture,looked,new,and,expensive.,?,?,?,?,?,?,?,?,1,Prog,EarlyClosure,182.1441176,51.20575388,0
TeAsP_List2_1,Croatian,222,31,Prog_EarlyClosure,m,1403,m,Did the furniture look expensive?,yes,,,,,,,,,,233,206,213,192,140,233,202,213,227,320,208,221,217,370,260,216,235,246,220,499.0966072,,,,,,,,,235,233,499.0966,Aspect,16,?,,,,,,,,Sarah,and,Jane,owned,a,shop,selling,old,furniture.,When,Sarah,was,polishing,the,cheap,furniture,looked,new,and,expensive.,?,?,?,?,?,?,?,?,1,Prog,EarlyClosure,280.6043956,109.2461058,0
TeAsP_List2_1,Croatian,214,19,Prog_EarlyClosure,m,2123,m,Did the furniture look expensive?,yes,,,,,,,,,,468,357,290,318,318,318,402,500,316,327,332,329,309,354,307,319,345,344,347,363,,,,,,,,,345,345.5,363,Aspect,16,?,,,,,,,,Sarah,and,Jane,owned,a,shop,selling,old,furniture.,When,Sarah,was,polishing,the,cheap,furniture,looked,new,and,expensive.,?,?,?,?,?,?,?,?,1,Prog,EarlyClosure,355.9646739,123.3104131,0
TeAsP_List2_1,Croatian,210,71,Prog_EarlyClosure,m,3573,m,Did the furniture look expensive?,yes,,,,,,,,,,342,350,390,361,428,355,413,411,402,396,555,462,411,416,539,514,546,657,409,622,,,,,,,,,546,533,622,Aspect,16,?,,,,,,,,Sarah,and,Jane,owned,a,shop,selling,old,furniture.,When,Sarah,was,polishing,the,cheap,furniture,looked,new,and,expensive.,?,?,?,?,?,?,?,?,1,Prog,EarlyClosure,475.3333333,208.8737832,0
TeAsP_List2_1,Croatian,206,46,Prog_EarlyClosure,m,1387,m,Did the furniture look expensive?,yes,,,,,,,,,,383,395,287,323,317,302,344,337,337,406,328,327,295,325,304,353,387,459,473,454,,,,,,,,,387,466,454,Aspect,16,?,,,,,,,,Sarah,and,Jane,owned,a,shop,selling,old,furniture.,When,Sarah,was,polishing,the,cheap,furniture,looked,new,and,expensive.,?,?,?,?,?,?,?,?,1,Prog,EarlyClosure,472.1160221,228.0653144,0
TeAsP_List2_1,Croatian,202,1,Prog_EarlyClosure,m,2084,m,Did the furniture look expensive?,yes,,,,,,,,,,508,363,291,366,463,436,448,414,539,556.4808982,381,473,498,492,556.4808982,472,462,556.4808982,521,556.4808982,,,,,,,,,462,538.7404491,556.4809,Aspect,16,?,,,,,,,,Sarah,and,Jane,owned,a,shop,selling,old,furniture.,When,Sarah,was,polishing,the,cheap,furniture,looked,new,and,expensive.,?,?,?,?,?,?,?,?,1,Prog,EarlyClosure,300.8211921,127.8298531,0
TeAsP_List3_1,Croatian,243,34,Prog_EarlyClosure,x,1699,x,Did the clothes stay whole?,yes,,,,,,,,,,331,340,283,286,294,275,323,286,293,338,319,292,307,278,326,282,302,286,272,323,,,,,,,,,302,279,323,Aspect,17,?,,,,,,,,Rita,and,Violet,took,turns,to,do,the,washing.,When,Rita,was,washing,the,delicate,clothes,were,torn,to,pieces.,?,?,?,?,?,?,?,?,1,Prog,EarlyClosure,343.0591133,108.6073574,0
TeAsP_List3_1,Croatian,239,61,Prog_EarlyClosure,x,2008,x,Did the clothes stay whole?,yes,,,,,,,,,,448,282,313,336,272,287,276,313,376,902,298,307,521,410,547,839,383,547,372,432,,,,,,,,,383,459.5,432,Aspect,17,?,,,,,,,,Rita,and,Violet,took,turns,to,do,the,washing.,When,Rita,was,washing,the,delicate,clothes,were,torn,to,pieces.,?,?,?,?,?,?,?,?,1,Prog,EarlyClosure,396.2420749,287.6443212,0
TeAsP_List3_1,Croatian,235,72,Prog_EarlyClosure,x,1746,x,Did the clothes stay whole?,yes,,,,,,,,,,280,296,219,318,273,254,240,331,265,307,310,232,223,441,312,301,350,368,344,322,,,,,,,,,350,356,322,Aspect,17,?,,,,,,,,Rita,and,Violet,took,turns,to,do,the,washing.,When,Rita,was,washing,the,delicate,clothes,were,torn,to,pieces.,?,?,?,?,?,?,?,?,1,Prog,EarlyClosure,418.2062663,260.1577183,0
TeAsP_List3_1,Croatian,231,5,Prog_EarlyClosure,x,1872,x,Did the clothes stay whole?,yes,,,,,,,,,,366,355,335,352,319,306,255,322,274,312,240,296,290,307,323,310,309,312,339,314,,,,,,,,,309,325.5,314,Aspect,17,?,,,,,,,,Rita,and,Violet,took,turns,to,do,the,washing.,When,Rita,was,washing,the,delicate,clothes,were,torn,to,pieces.,?,?,?,?,?,?,?,?,1,Prog,EarlyClosure,331.183908,111.9460337,0
TeAsP_List3_1,Croatian,223,5,Prog_EarlyClosure,x,1667,x,Did the clothes stay whole?,yes,,,,,,,,,,324,305,443,381,351,622.6477275,395,382,622.6477275,559,437,426,455,440,622.6477275,479,465,417,382,356,,,,,,,,,465,399.5,356,Aspect,17,?,,,,,,,,Rita,and,Violet,took,turns,to,do,the,washing.,When,Rita,was,washing,the,delicate,clothes,were,torn,to,pieces.,?,?,?,?,?,?,?,?,1,Prog,EarlyClosure,376.0714286,123.2881495,0
TeAsP_List3_1,Croatian,219,69,Prog_EarlyClosure,x,1522,x,Did the clothes stay whole?,yes,,,,,,,,,,448,482,410,392,415,316,334,235,414,380,524,473,874,550,314,324,327,410,459,344,,,,,,,,,327,434.5,344,Aspect,17,?,,,,,,,,Rita,and,Violet,took,turns,to,do,the,washing.,When,Rita,was,washing,the,delicate,clothes,were,torn,to,pieces.,?,?,?,?,?,?,?,?,1,Prog,EarlyClosure,482.5234375,239.6448967,0
TeAsP_List3_1,Croatian,215,52,Prog_EarlyClosure,x,1295,x,Did the clothes stay whole?,yes,,,,,,,,,,508,296,275,277,254,340,287,330,521,503,467,326,490,353,545.3233829,545.3233829,446,345,484,314,,,,,,,,,446,414.5,314,Aspect,17,?,,,,,,,,Rita,and,Violet,took,turns,to,do,the,washing.,When,Rita,was,washing,the,delicate,clothes,were,torn,to,pieces.,?,?,?,?,?,?,?,?,1,Prog,EarlyClosure,357.7938719,93.76475552,0
TeAsP_List3_1,Croatian,211,27,Prog_EarlyClosure,x,2215,x,Did the clothes stay whole?,yes,,,,,,,,,,1096,489,826,676,661,720,828,588,933,605,801,440,728,439,737,558,547,1434,792,648,,,,,,,,,547,1113,648,Aspect,17,?,,,,,,,,Rita,and,Violet,took,turns,to,do,the,washing.,When,Rita,was,washing,the,delicate,clothes,were,torn,to,pieces.,?,?,?,?,?,?,?,?,1,Prog,EarlyClosure,724.9505495,427.4856051,0
TeAsP_List3_1,Croatian,207,62,Prog_EarlyClosure,x,1320,x,Did the clothes stay whole?,yes,,,,,,,,,,585.2971083,385,452,585.2971083,310,385,301,280,585.2971083,445,350,314,316,260,377,256,332,329,306,365,,,,,,,,,332,317.5,365,Aspect,17,?,,,,,,,,Rita,and,Violet,took,turns,to,do,the,washing.,When,Rita,was,washing,the,delicate,clothes,were,torn,to,pieces.,?,?,?,?,?,?,?,?,1,Prog,EarlyClosure,323.0146628,131.1412228,0
TeAsP_List3_1,Croatian,203,51,Prog_EarlyClosure,x,2041,x,Did the clothes stay whole?,yes,,,,,,,,,,509,315,384,395,308,520,316,250,352,291,170,463,254,310,400,333,403,372,428,291,,,,,,,,,403,400,291,Aspect,17,?,,,,,,,,Rita,and,Violet,took,turns,to,do,the,washing.,When,Rita,was,washing,the,delicate,clothes,were,torn,to,pieces.,?,?,?,?,?,?,?,?,1,Prog,EarlyClosure,341.56,117.633453,0
TeAsP_List4_1,Croatian,240,80,Prog_EarlyClosure,m,1519,m,Was the eviction notice canceled?,yes,,,,,,,,,,,,184,198,383,771.5057772,229,216,267,186,192,231,188,193,224,519,227,301,268,407,,,,,,,,,227,284.5,407,Aspect,18,?,,,,,,,,,,The,lawyersÍ,office,was,rather,busy.,As,the,secretary,was,typing,the,eviction,notice,was,canceled,very,suddenly.,?,?,?,?,?,?,?,?,1,Prog,EarlyClosure,375.5777778,197.9639997,0
TeAsP_List4_1,Croatian,232,8,Prog_EarlyClosure,m,2831,m,Was the eviction notice canceled?,yes,,,,,,,,,,,,702,706,706,574,388,369,413,370,594,340,469,373,679,476,817.8833928,641,538,817.8833928,,,,,,,,,817.8833928,589.5,817.8834,Aspect,18,?,,,,,,,,,,The,lawyersÍ,office,was,rather,busy.,As,the,secretary,was,typing,the,eviction,notice,was,canceled,very,suddenly.,?,?,?,?,?,?,?,?,1,Prog,EarlyClosure,428.4,194.7416964,0
TeAsP_List4_1,Croatian,228,51,Prog_EarlyClosure,m,3209,m,Was the eviction notice canceled?,yes,,,,,,,,,,,,324,373,269,373,354,278,509,358,582,325,361,288,411,402,366,413,349,496,,,,,,,,,366,381,496,Aspect,18,?,,,,,,,,,,The,lawyersÍ,office,was,rather,busy.,As,the,secretary,was,typing,the,eviction,notice,was,canceled,very,suddenly.,?,?,?,?,?,?,?,?,1,Prog,EarlyClosure,395.8258427,194.3984614,0
TeAsP_List4_1,Croatian,224,34,Prog_EarlyClosure,m,2230,m,Was the eviction notice canceled?,yes,,,,,,,,,,,,494,1481.709658,1128,763,825,695,699,639,735,611,872,704,1098,1003,578,673,658,660,,,,,,,,,578,665.5,660,Aspect,18,?,,,,,,,,,,The,lawyersÍ,office,was,rather,busy.,As,the,secretary,was,typing,the,eviction,notice,was,canceled,very,suddenly.,?,?,?,?,?,?,?,?,1,Prog,EarlyClosure,618.854321,431.4276684,0
TeAsP_List4_1,Croatian,220,17,Prog_EarlyClosure,m,1116,m,Was the eviction notice canceled?,yes,,,,,,,,,,,,319,264,345,307,349,433,335,379,381,342,342,309,324,315,333,387,382,503.3220925,,,,,,,,,333,384.5,503.3221,Aspect,18,?,,,,,,,,,,The,lawyersÍ,office,was,rather,busy.,As,the,secretary,was,typing,the,eviction,notice,was,canceled,very,suddenly.,?,?,?,?,?,?,?,?,1,Prog,EarlyClosure,279.0846995,112.1186965,0
TeAsP_List4_1,Croatian,216,14,Prog_EarlyClosure,m,1484,m,Was the eviction notice canceled?,yes,,,,,,,,,,,,441,176,245,278,301,223,319,232,195,257,309,285,292,476,160,496,212,317,,,,,,,,,160,354,317,Aspect,18,?,,,,,,,,,,The,lawyersÍ,office,was,rather,busy.,As,the,secretary,was,typing,the,eviction,notice,was,canceled,very,suddenly.,?,?,?,?,?,?,?,?,1,Prog,EarlyClosure,281.8082596,141.9028557,0
TeAsP_List4_1,Croatian,212,24,Prog_EarlyClosure,m,2131,m,Was the eviction notice canceled?,yes,,,,,,,,,,,,226,269,273,341,245,240,269,267,232,243,293,234,268,249,383,514.1497932,366,514.1497932,,,,,,,,,383,440.0748966,514.1498,Aspect,18,?,,,,,,,,,,The,lawyersÍ,office,was,rather,busy.,As,the,secretary,was,typing,the,eviction,notice,was,canceled,very,suddenly.,?,?,?,?,?,?,?,?,1,Prog,EarlyClosure,306.6814815,103.7341558,0
TeAsP_List4_1,Croatian,204,5,Prog_EarlyClosure,m,1899,m,Was the eviction notice canceled?,yes,,,,,,,,,,,,384,391,543,567,372,409,355,378,555,413,545,393,531,629,511,3258,614,699,,,,,,,,,511,1936,699,Aspect,18,?,,,,,,,,,,The,lawyersÍ,office,was,rather,busy.,As,the,secretary,was,typing,the,eviction,notice,was,canceled,very,suddenly.,?,?,?,?,?,?,?,?,1,Prog,EarlyClosure,373.3989071,1800.288474,0
TeAsP_List1_1,Croatian,241,7,Prog_EarlyClosure,m,2629,m,Did the model keep still?,yes,,,,,967.3068288,448,512,463,681,943,480,451,466,839,685,673,967.3068288,447,403,388,528,967.3068288,485,287,967.3068288,480,614,492,417,561,749,,,,,,,480,521,749,Aspect,19,?,,,Yesterday,in,my,art,"class,",the,model,sat,in,the,same,position,for,hours.,As,I,was,drawing,the,patient,woman,tried,very,hard,to,keep,still.,?,?,?,?,?,?,1,Prog,EarlyClosure,459.6756757,253.8155766,0
TeAsP_List1_1,Croatian,237,45,Prog_EarlyClosure,m,1119,m,Did the model keep still?,yes,,,,,454,384,361,305,316,271,556.374962,556.374962,277,311,284,241,269,256,341,225,260,203,286,219,262,284,235,304,267,289,256,,,,,,,284,273.75,256,Aspect,19,?,,,Yesterday,in,my,art,"class,",the,model,sat,in,the,same,position,for,hours.,As,I,was,drawing,the,patient,woman,tried,very,hard,to,keep,still.,?,?,?,?,?,?,1,Prog,EarlyClosure,302.0259366,127.1745127,0
TeAsP_List1_1,Croatian,233,80,Prog_EarlyClosure,m,1080,m,Did the model keep still?,yes,,,,,442,335,345,385,385,425,985,1098.293544,289,345,379,422,348,1098.293544,353,369,432,523,517,386,815,579,480,381,325,317,479,,,,,,,579,375.75,479,Aspect,19,?,,,Yesterday,in,my,art,"class,",the,model,sat,in,the,same,position,for,hours.,As,I,was,drawing,the,patient,woman,tried,very,hard,to,keep,still.,?,?,?,?,?,?,1,Prog,EarlyClosure,538.2945736,279.9994851,0
TeAsP_List1_1,Croatian,229,81,Prog_EarlyClosure,m,1107,m,Did the model keep still?,yes,,,,,353,301,534,363,393,360,338,312,394,313,423,350,288,341,332,253,305,261,324,394,387,310,397,377,368,297,317,,,,,,,310,359.75,317,Aspect,19,?,,,Yesterday,in,my,art,"class,",the,model,sat,in,the,same,position,for,hours.,As,I,was,drawing,the,patient,woman,tried,very,hard,to,keep,still.,?,?,?,?,?,?,1,Prog,EarlyClosure,361.857513,89.35666966,0
TeAsP_List1_1,Croatian,225,73,Prog_EarlyClosure,m,3728,m,Did the model keep still?,yes,,,,,653,394,762.8499175,230,270,265,249,248,284,244,484,313,238,276,324,311,323,365,306,487,270,386,266,237,311,265,333,,,,,,,386,269.75,333,Aspect,19,?,,,Yesterday,in,my,art,"class,",the,model,sat,in,the,same,position,for,hours.,As,I,was,drawing,the,patient,woman,tried,very,hard,to,keep,still.,?,?,?,?,?,?,1,Prog,EarlyClosure,377.5135135,192.668202,0
TeAsP_List1_1,Croatian,221,81,Prog_EarlyClosure,m,2275,m,Did the model keep still?,yes,,,,,487,215,198,194,206,349,231,296,232,230,208,202,243,219,196,212,240,231,192,178,172,199,423,206,227,261,233,,,,,,,199,279.25,233,Aspect,19,?,,,Yesterday,in,my,art,"class,",the,model,sat,in,the,same,position,for,hours.,As,I,was,drawing,the,patient,woman,tried,very,hard,to,keep,still.,?,?,?,?,?,?,1,Prog,EarlyClosure,312.4889435,190.439384,0
TeAsP_List1_1,Croatian,217,58,Prog_EarlyClosure,m,1553,m,Did the model keep still?,yes,,,,,289,323,359,384,584,400,361,327,366,346,454,330,287,363,334,323,293,313,325,301,362,381,429,374,377,395,636,,,,,,,381,393.75,636,Aspect,19,?,,,Yesterday,in,my,art,"class,",the,model,sat,in,the,same,position,for,hours.,As,I,was,drawing,the,patient,woman,tried,very,hard,to,keep,still.,?,?,?,?,?,?,1,Prog,EarlyClosure,468.8567251,262.4951572,0
TeAsP_List1_1,Croatian,213,22,Prog_EarlyClosure,m,3115,m,Did the model keep still?,yes,,,,,504,437,416,449,721,620,445,485,435,578,461,593,515,581,521,348,423,541,574,954,392,558,699,542,491,379,806,,,,,,,558,527.75,806,Aspect,19,?,,,Yesterday,in,my,art,"class,",the,model,sat,in,the,same,position,for,hours.,As,I,was,drawing,the,patient,woman,tried,very,hard,to,keep,still.,?,?,?,?,?,?,1,Prog,EarlyClosure,540.6692506,245.3178588,0
TeAsP_List1_1,Croatian,209,83,Prog_EarlyClosure,m,2220,m,Did the model keep still?,yes,,,,,403,360,466,268,382,524,274,420,410,247,338,382,245,264,318,455,274,110,395,326,355,412,257,347,359,235,237,,,,,,,412,299.5,237,Aspect,19,?,,,Yesterday,in,my,art,"class,",the,model,sat,in,the,same,position,for,hours.,As,I,was,drawing,the,patient,woman,tried,very,hard,to,keep,still.,?,?,?,?,?,?,1,Prog,EarlyClosure,325.0930233,160.2005579,0
TeAsP_List1_1,Croatian,205,82,Prog_EarlyClosure,m,2267,m,Did the model keep still?,yes,,,,,368,638,534,484,524,308,282,326,355,245,270,413,310,312,503,334,394,334,406,431,545,489,378,416,373,463,415,,,,,,,489,407.5,415,Aspect,19,?,,,Yesterday,in,my,art,"class,",the,model,sat,in,the,same,position,for,hours.,As,I,was,drawing,the,patient,woman,tried,very,hard,to,keep,still.,?,?,?,?,?,?,1,Prog,EarlyClosure,567.7616708,234.1332486,0
TeAsP_List1_1,Croatian,201,34,Prog_EarlyClosure,m,1576,m,Did the model keep still?,yes,,,,,455,463,592,472,707,467,359,380,545,213,414,311,321,304,377,296,336,302,333,288,384,349,506,390,408,317,338,,,,,,,349,405.25,338,Aspect,19,?,,,Yesterday,in,my,art,"class,",the,model,sat,in,the,same,position,for,hours.,As,I,was,drawing,the,patient,woman,tried,very,hard,to,keep,still.,?,?,?,?,?,?,1,Prog,EarlyClosure,407.8931507,225.6052003,0
TeAsP_List2_1,Croatian,242,32,Prog_EarlyClosure,x,2581,x,Did Mrs. Brown park well?,yes,,,,,,,,,341,297,381,353,425,318,374,424,461,337,446,429,333,365,367,368,316,332,369,339,398,393,,,,,,,,332,368.6666667,393,Aspect,20,?,,,,,,,The,driving,instructor,almost,gave,up,on,Mrs.,Brown.,When,the,woman,was,parking,the,new,car,was,always,at,an,angle.,?,?,?,?,?,?,?,1,Prog,EarlyClosure,365.3049451,127.8038198,0
TeAsP_List2_1,Croatian,234,82,Prog_EarlyClosure,x,1843,x,Did Mrs. Brown park well?,yes,,,,,,,,,146,242,184,152,160,371.5493031,371.5493031,191,191,184,190,186,205,201,203,193,215,195,196,217,208,207,,,,,,,,195,207,207,Aspect,20,?,,,,,,,The,driving,instructor,almost,gave,up,on,Mrs.,Brown.,When,the,woman,was,parking,the,new,car,was,always,at,an,angle.,?,?,?,?,?,?,?,1,Prog,EarlyClosure,218.6675325,76.4408853,0
TeAsP_List2_1,Croatian,230,48,Prog_EarlyClosure,x,1982,x,Did Mrs. Brown park well?,yes,,,,,,,,,635,821,1971.610581,955,363,386,542,542,1360,420,660,396,314,537,528,488,434,878,622,569,366,577,,,,,,,,878,519,577,Aspect,20,?,,,,,,,The,driving,instructor,almost,gave,up,on,Mrs.,Brown.,When,the,woman,was,parking,the,new,car,was,always,at,an,angle.,?,?,?,?,?,?,?,1,Prog,EarlyClosure,742.4581281,614.5762263,0
TeAsP_List2_1,Croatian,226,74,Prog_EarlyClosure,x,1193,x,Did Mrs. Brown park well?,yes,,,,,,,,,146,200,149,202,115,179,154,172,166,159,173,156,146,187,150,167,170,186,183,175,196,185,,,,,,,,186,184.6666667,185,Aspect,20,?,,,,,,,The,driving,instructor,almost,gave,up,on,Mrs.,Brown.,When,the,woman,was,parking,the,new,car,was,always,at,an,angle.,?,?,?,?,?,?,?,1,Prog,EarlyClosure,182.1441176,51.20575388,0
TeAsP_List2_1,Croatian,222,6,Prog_EarlyClosure,x,1453,x,Did Mrs. Brown park well?,yes,,,,,,,,,327,375,409,311,325,305,301,361,323,373,331,328,470,301,278,304,299,313,320,499.0966072,365,499.0966072,,,,,,,,313,394.6988691,499.0966072,Aspect,20,?,,,,,,,The,driving,instructor,almost,gave,up,on,Mrs.,Brown.,When,the,woman,was,parking,the,new,car,was,always,at,an,angle.,?,?,?,?,?,?,?,1,Prog,EarlyClosure,280.6043956,109.2461058,0
TeAsP_List2_1,Croatian,214,77,Prog_EarlyClosure,x,2067,x,Did Mrs. Brown park well?,yes,,,,,,,,,358,282,311,334,263,272,335,282,306,318,287,281,288,389,293,242,260,329,380,272,268,318,,,,,,,,329,306.6666667,318,Aspect,20,?,,,,,,,The,driving,instructor,almost,gave,up,on,Mrs.,Brown.,When,the,woman,was,parking,the,new,car,was,always,at,an,angle.,?,?,?,?,?,?,?,1,Prog,EarlyClosure,355.9646739,123.3104131,0
TeAsP_List2_1,Croatian,210,69,Prog_EarlyClosure,x,2028,x,Did Mrs. Brown park well?,yes,,,,,,,,,384,415,492,291,449,378,439,511,552,500,355,391,376,537,338,368,310,302,408,367,341,434,,,,,,,,302,372,434,Aspect,20,?,,,,,,,The,driving,instructor,almost,gave,up,on,Mrs.,Brown.,When,the,woman,was,parking,the,new,car,was,always,at,an,angle.,?,?,?,?,?,?,?,1,Prog,EarlyClosure,475.3333333,208.8737832,0
TeAsP_List2_1,Croatian,206,39,Prog_EarlyClosure,x,2237,x,Did Mrs. Brown park well?,yes,,,,,,,,,513,357,928.2466509,445,450,473,450,485,446,397,353,360,370,381,365,375,357,347,376,442,474,402,,,,,,,,347,430.6666667,402,Aspect,20,?,,,,,,,The,driving,instructor,almost,gave,up,on,Mrs.,Brown.,When,the,woman,was,parking,the,new,car,was,always,at,an,angle.,?,?,?,?,?,?,?,1,Prog,EarlyClosure,472.1160221,228.0653144,0
TeAsP_List1_1,Croatian,241,8,Prog_LateClosure,m,2396,m,Did Alice and Jim decorate their house every year?,yes,,,,,,,,,,,760,967.3068288,967.3068288,967.3068288,563,904,967.3068288,874,378,358,325,464,342,327,595,436,385,636,443,601,967.3068288,,,,,,,410.5,560,967.3068,Aspect,2,no,,,,,,,,,Alice,and,Jim,decorated,their,house,every,year.,When,Alice,was,painting,the,kitchen,walls,they,were,covered,with,many,drops.,?,?,?,?,?,?,1,Prog,LateClosure,459.6756757,253.8155766,0
TeAsP_List1_1,Croatian,237,37,Prog_LateClosure,m,6634,m,Did Alice and Jim decorate their house every year?,yes,,,,,,,,,,,275,201,253,186,248,224,228,267,284,280,187,260,228,234,246,239,219,202,241,218,235,,,,,,,229,220.3333333,235,Aspect,2,no,,,,,,,,,Alice,and,Jim,decorated,their,house,every,year.,When,Alice,was,painting,the,kitchen,walls,they,were,covered,with,many,drops.,?,?,?,?,?,?,1,Prog,LateClosure,302.0259366,127.1745127,0
TeAsP_List1_1,Croatian,233,68,Prog_LateClosure,m,6424,m,Did Alice and Jim decorate their house every year?,yes,,,,,,,,,,,391,370,528,404,426,374,484,445,658,359,427,401,595,456,444,1098.293544,406,377,387,447,570,,,,,,,752.146772,403.6666667,570,Aspect,2,no,,,,,,,,,Alice,and,Jim,decorated,their,house,every,year.,When,Alice,was,painting,the,kitchen,walls,they,were,covered,with,many,drops.,?,?,?,?,?,?,1,Prog,LateClosure,538.2945736,279.9994851,0
TeAsP_List1_1,Croatian,229,65,Prog_LateClosure,m,2226,m,Did Alice and Jim decorate their house every year?,yes,,,,,,,,,,,346,313,348,335,326,327,333,325,347,508,393,540.5708523,461,362,348,368,369,362,397,389,288,,,,,,,368.5,382.6666667,288,Aspect,2,no,,,,,,,,,Alice,and,Jim,decorated,their,house,every,year.,When,Alice,was,painting,the,kitchen,walls,they,were,covered,with,many,drops.,?,?,?,?,?,?,1,Prog,LateClosure,361.857513,89.35666966,0
TeAsP_List1_1,Croatian,225,10,Prog_LateClosure,m,3946,m,Did Alice and Jim decorate their house every year?,yes,,,,,,,,,,,762.8499175,571,300,355,293,341,403,331,358,298,288,394,376,416,309,517,267,247,443,386,395,,,,,,,392,358.6666667,395,Aspect,2,no,,,,,,,,,Alice,and,Jim,decorated,their,house,every,year.,When,Alice,was,painting,the,kitchen,walls,they,were,covered,with,many,drops.,?,?,?,?,?,?,1,Prog,LateClosure,377.5135135,192.668202,0
TeAsP_List1_1,Croatian,221,82,Prog_LateClosure,m,4757,m,Did Alice and Jim decorate their house every year?,yes,,,,,,,,,,,412,238,209,296,297,222,167,152,182,181,252,231,174,138,159,151,163,135,177,186,173,,,,,,,157,166,173,Aspect,2,no,,,,,,,,,Alice,and,Jim,decorated,their,house,every,year.,When,Alice,was,painting,the,kitchen,walls,they,were,covered,with,many,drops.,?,?,?,?,?,?,1,Prog,LateClosure,312.4889435,190.439384,0
TeAsP_List1_1,Croatian,213,84,Prog_LateClosure,m,8420,m,Did Alice and Jim decorate their house every year?,yes,,,,,,,,,,,435,335,300,438,317,420,390,432,458,355,342,489,374,408,330,414,419,478,421,411,703,,,,,,,416.5,436.6666667,703,Aspect,2,no,,,,,,,,,Alice,and,Jim,decorated,their,house,every,year.,When,Alice,was,painting,the,kitchen,walls,they,were,covered,with,many,drops.,?,?,?,?,?,?,1,Prog,LateClosure,540.6692506,245.3178588,0
TeAsP_List1_1,Croatian,209,51,Prog_LateClosure,m,2194,m,Did Alice and Jim decorate their house every year?,yes,,,,,,,,,,,262,342,412,198,223,49,645.494139,324,379,243,195,405,448,221,247,224,246,263,300,248,247,,,,,,,235,270.3333333,247,Aspect,2,no,,,,,,,,,Alice,and,Jim,decorated,their,house,every,year.,When,Alice,was,painting,the,kitchen,walls,they,were,covered,with,many,drops.,?,?,?,?,?,?,1,Prog,LateClosure,325.0930233,160.2005579,0
TeAsP_List1_1,Croatian,205,10,Prog_LateClosure,m,4781,m,Did Alice and Jim decorate their house every year?,yes,,,,,,,,,,,1030,647,597,664,604,656,645,677,583,648,562,642,631,564,606,536,530,733,661,711,693,,,,,,,533,701.6666667,693,Aspect,2,no,,,,,,,,,Alice,and,Jim,decorated,their,house,every,year.,When,Alice,was,painting,the,kitchen,walls,they,were,covered,with,many,drops.,?,?,?,?,?,?,1,Prog,LateClosure,567.7616708,234.1332486,0
TeAsP_List2_1,Croatian,242,12,Prog_LateClosure,x,2252,x,Did Tony hate to sing at parties?,yes,,,,,,,,,,256,290,342,350,384,390,432,465,620.9125846,319,411,260,284,287,301,300,589,620.9125846,408,596,,,,,,,,,604.9562923,408,596,Aspect,3,no,,,,,,,,Tony,and,his,friends,loved,to,sing,at,parties.,When,Tony,was,singing,the,drinking,song,it,sounded,like,opera.,?,?,?,?,?,?,?,?,1,Prog,LateClosure,365.3049451,127.8038198,0
TeAsP_List2_1,Croatian,234,46,Prog_LateClosure,x,1992,x,Did Tony hate to sing at parties?,yes,,,,,,,,,,293,107,170,170,167,213,198,180,129,158,178,197,162,193,193,198,202,204,220,217,,,,,,,,,203,220,217,Aspect,3,no,,,,,,,,Tony,and,his,friends,loved,to,sing,at,parties.,When,Tony,was,singing,the,drinking,song,it,sounded,like,opera.,?,?,?,?,?,?,?,?,1,Prog,LateClosure,218.6675325,76.4408853,0
TeAsP_List2_1,Croatian,230,27,Prog_LateClosure,x,1920,x,Did Tony hate to sing at parties?,yes,,,,,,,,,,1071,651,525,858,919,375,331,1088,1540,1971.610581,431,315,538,415,1008,614,568,574,563,1188,,,,,,,,,571,563,1188,Aspect,3,no,,,,,,,,Tony,and,his,friends,loved,to,sing,at,parties.,When,Tony,was,singing,the,drinking,song,it,sounded,like,opera.,?,?,?,?,?,?,?,?,1,Prog,LateClosure,742.4581281,614.5762263,0
TeAsP_List2_1,Croatian,226,35,Prog_LateClosure,x,2132,x,Did Tony hate to sing at parties?,yes,,,,,,,,,,164,152,158,148,162,176,199,189,219,284.5556254,284.5556254,262,190,213,150,220,206,254,168,191,,,,,,,,,230,168,191,Aspect,3,no,,,,,,,,Tony,and,his,friends,loved,to,sing,at,parties.,When,Tony,was,singing,the,drinking,song,it,sounded,like,opera.,?,?,?,?,?,?,?,?,1,Prog,LateClosure,182.1441176,51.20575388,0
TeAsP_List2_1,Croatian,222,53,Prog_LateClosure,x,2054,x,Did Tony hate to sing at parties?,yes,,,,,,,,,,219,192,245,199,198,229,230,243,414,233,238,298,276,236,250,241,247,249,270,216,,,,,,,,,248,270,216,Aspect,3,no,,,,,,,,Tony,and,his,friends,loved,to,sing,at,parties.,When,Tony,was,singing,the,drinking,song,it,sounded,like,opera.,?,?,?,?,?,?,?,?,1,Prog,LateClosure,280.6043956,109.2461058,0
TeAsP_List2_1,Croatian,214,8,Prog_LateClosure,x,1973,x,Did Tony hate to sing at parties?,yes,,,,,,,,,,455,547,383,387,361,441,388,357,413,336,331,332,395,602.5855002,369,331,362,326,305,477,,,,,,,,,344,305,477,Aspect,3,no,,,,,,,,Tony,and,his,friends,loved,to,sing,at,parties.,When,Tony,was,singing,the,drinking,song,it,sounded,like,opera.,?,?,?,?,?,?,?,?,1,Prog,LateClosure,355.9646739,123.3104131,0
TeAsP_List2_1,Croatian,210,24,Prog_LateClosure,x,2459,x,Did Tony hate to sing at parties?,yes,,,,,,,,,,449,484,396,455,315,396,475,667,347,575,359,407,370,411,335,450,837,450,500,719,,,,,,,,,643.5,500,719,Aspect,3,no,,,,,,,,Tony,and,his,friends,loved,to,sing,at,parties.,When,Tony,was,singing,the,drinking,song,it,sounded,like,opera.,?,?,?,?,?,?,?,?,1,Prog,LateClosure,475.3333333,208.8737832,0
TeAsP_List2_1,Croatian,206,64,Prog_LateClosure,x,2604,x,Did Tony hate to sing at parties?,yes,,,,,,,,,,289,253,242,263,307,499,412,588,426,847,309,282,328,323,302,329,355,332,353,334,,,,,,,,,343.5,353,334,Aspect,3,no,,,,,,,,Tony,and,his,friends,loved,to,sing,at,parties.,When,Tony,was,singing,the,drinking,song,it,sounded,like,opera.,?,?,?,?,?,?,?,?,1,Prog,LateClosure,472.1160221,228.0653144,0
TeAsP_List2_1,Croatian,202,68,Prog_LateClosure,x,2475,x,Did Tony hate to sing at parties?,yes,,,,,,,,,,215,149,166,160,100,155,138,253,162,484,240,194,153,206,219,187,179,345,249,327,,,,,,,,,262,249,327,Aspect,3,no,,,,,,,,Tony,and,his,friends,loved,to,sing,at,parties.,When,Tony,was,singing,the,drinking,song,it,sounded,like,opera.,?,?,?,?,?,?,?,?,1,Prog,LateClosure,300.8211921,127.8298531,0
TeAsP_List3_1,Croatian,243,11,Prog_LateClosure,m,3184,m,Did John and Sam take their guns into the woods?,yes,,,,,,,,,255,276,285,365,320,303,412,405,278,371,560.2738281,297,251,265,326,380,376,363,274,338,288,295,333,,,,,,,318.5,307,333,Aspect,4,no,,,,,,,John,and,Sam,took,their,guns,out,into,the,woods.,As,John,was,hunting,the,frightened,rabbit,it,escaped,through,the,dark,trees.,?,?,?,?,?,?,1,Prog,LateClosure,343.0591133,108.6073574,0
TeAsP_List3_1,Croatian,239,53,Prog_LateClosure,m,2937,m,Did John and Sam take their guns into the woods?,yes,,,,,,,,,404,396,317,509,234,258,282,281,271,320,370,246,297,265,520,669,409,369,597,566,363,539,634,,,,,,,483,489.3333333,634,Aspect,4,no,,,,,,,John,and,Sam,took,their,guns,out,into,the,woods.,As,John,was,hunting,the,frightened,rabbit,it,escaped,through,the,dark,trees.,?,?,?,?,?,?,1,Prog,LateClosure,396.2420749,287.6443212,0
TeAsP_List3_1,Croatian,235,51,Prog_LateClosure,m,3694,m,Did John and Sam take their guns into the woods?,yes,,,,,,,,,347,324,547,565,456,465,341,352,400,894,389,361,321,438,378,819,835,938.5217029,452,345,375,284,315,,,,,,,695.2608515,334.6666667,315,Aspect,4,no,,,,,,,John,and,Sam,took,their,guns,out,into,the,woods.,As,John,was,hunting,the,frightened,rabbit,it,escaped,through,the,dark,trees.,?,?,?,?,?,?,1,Prog,LateClosure,418.2062663,260.1577183,0
TeAsP_List3_1,Croatian,231,71,Prog_LateClosure,m,1956,m,Did John and Sam take their guns into the woods?,yes,,,,,,,,,555.0759754,403,358,354,309,294,304,327,291,285,299,289,267,297,269,298,329,299,339,291,308,320,328,,,,,,,319,306.3333333,328,Aspect,4,no,,,,,,,John,and,Sam,took,their,guns,out,into,the,woods.,As,John,was,hunting,the,frightened,rabbit,it,escaped,through,the,dark,trees.,?,?,?,?,?,?,1,Prog,LateClosure,331.183908,111.9460337,0
TeAsP_List3_1,Croatian,227,81,Prog_LateClosure,m,7385,m,Did John and Sam take their guns into the woods?,yes,,,,,,,,,363,561,268,309,240,292,321,262,282,494,299,257,331,298,318,309,338,340,307,311,327,514,237,,,,,,,323.5,384,237,Aspect,4,no,,,,,,,John,and,Sam,took,their,guns,out,into,the,woods.,As,John,was,hunting,the,frightened,rabbit,it,escaped,through,the,dark,trees.,?,?,?,?,?,?,1,Prog,LateClosure,410.6415094,179.9678966,0
TeAsP_List3_1,Croatian,223,77,Prog_LateClosure,m,3346,m,Did John and Sam take their guns into the woods?,yes,,,,,,,,,340,301,282,333,300,329,277,282,251,340,622.6477275,289,311,245,341,569,326,365,335,339,327,266,355,,,,,,,350,310.6666667,355,Aspect,4,no,,,,,,,John,and,Sam,took,their,guns,out,into,the,woods.,As,John,was,hunting,the,frightened,rabbit,it,escaped,through,the,dark,trees.,?,?,?,?,?,?,1,Prog,LateClosure,376.0714286,123.2881495,0
TeAsP_List3_1,Croatian,219,55,Prog_LateClosure,m,2111,m,Did John and Sam take their guns into the woods?,yes,,,,,,,,,961.813231,375,875,516,668,346,376,271,267,281,961.813231,840,660,951,590,961.813231,899,612,563,386,339,371,363,,,,,,,587.5,365.3333333,363,Aspect,4,no,,,,,,,John,and,Sam,took,their,guns,out,into,the,woods.,As,John,was,hunting,the,frightened,rabbit,it,escaped,through,the,dark,trees.,?,?,?,?,?,?,1,Prog,LateClosure,482.5234375,239.6448967,0
TeAsP_List3_1,Croatian,215,68,Prog_LateClosure,m,1678,m,Did John and Sam take their guns into the woods?,yes,,,,,,,,,240,315,307,278,302,324,322,446,266,545.3233829,324,446,289,417,351,270,393,325,315,290,327,296,296,,,,,,,320,304.3333333,296,Aspect,4,no,,,,,,,John,and,Sam,took,their,guns,out,into,the,woods.,As,John,was,hunting,the,frightened,rabbit,it,escaped,through,the,dark,trees.,?,?,?,?,?,?,1,Prog,LateClosure,357.7938719,93.76475552,0
TeAsP_List3_1,Croatian,211,36,Prog_LateClosure,m,4829,m,Did John and Sam take their guns into the woods?,yes,,,,,,,,,715,730,801,664,657,651,751,705,709,716,685,698,755,909,834,1488,1036,901,1579.92176,792,762,675,699,,,,,,,1240.46088,743,699,Aspect,4,no,,,,,,,John,and,Sam,took,their,guns,out,into,the,woods.,As,John,was,hunting,the,frightened,rabbit,it,escaped,through,the,dark,trees.,?,?,?,?,?,?,1,Prog,LateClosure,724.9505495,427.4856051,0
TeAsP_List3_1,Croatian,207,14,Prog_LateClosure,m,2516,m,Did John and Sam take their guns into the woods?,yes,,,,,,,,,435,205,240,296,283,306,252,280,280,407,307,243,295,396,247,334,319,286,262,289,306,220,298,,,,,,,274,271.6666667,298,Aspect,4,no,,,,,,,John,and,Sam,took,their,guns,out,into,the,woods.,As,John,was,hunting,the,frightened,rabbit,it,escaped,through,the,dark,trees.,?,?,?,?,?,?,1,Prog,LateClosure,323.0146628,131.1412228,0
TeAsP_List3_1,Croatian,203,84,Prog_LateClosure,m,3798,m,Did John and Sam take their guns into the woods?,yes,,,,,,,,,303,188,415,323,195,200,314,345,326,168,409,328,382,334,309,196,576.8269059,303,342,324,209,347,367,,,,,,,322.5,293.3333333,367,Aspect,4,no,,,,,,,John,and,Sam,took,their,guns,out,into,the,woods.,As,John,was,hunting,the,frightened,rabbit,it,escaped,through,the,dark,trees.,?,?,?,?,?,?,1,Prog,LateClosure,341.56,117.633453,0
TeAsP_List4_1,Croatian,240,73,Prog_LateClosure,x,3553,x,Did Susan and her children live near her parents?,yes,,,,,,,,,,325,418,296,298,408,320,289,317,315,374,368,253,292,353,349,438,296,246,256,348,313,396,,,,,,,271,305.6666667,396,Aspect,5,no,,,,,,,,Susan,and,her,children,lived,far,from,her,parents.,When,Susan,was,visiting,the,friendly,neighbors,they,wanted,to,have,a,party.,?,?,?,?,?,?,1,Prog,LateClosure,375.5777778,197.9639997,0
TeAsP_List4_1,Croatian,236,32,Prog_LateClosure,x,8588,x,Did Susan and her children live near her parents?,yes,,,,,,,,,,461,371,405,229,486,375,459,307,511,359,289,315,373,418,427,463,441,445,331,512,353,324,,,,,,,443,398.6666667,324,Aspect,5,no,,,,,,,,Susan,and,her,children,lived,far,from,her,parents.,When,Susan,was,visiting,the,friendly,neighbors,they,wanted,to,have,a,party.,?,?,?,?,?,?,1,Prog,LateClosure,407.2205882,197.1753956,0
TeAsP_List4_1,Croatian,232,72,Prog_LateClosure,x,4455,x,Did Susan and her children live near her parents?,yes,,,,,,,,,,817.8833928,224,334,513,297,376,351,348,482,581,414,362,422,325,497,357,367,422,347,293,295,309,,,,,,,394.5,311.6666667,309,Aspect,5,no,,,,,,,,Susan,and,her,children,lived,far,from,her,parents.,When,Susan,was,visiting,the,friendly,neighbors,they,wanted,to,have,a,party.,?,?,?,?,?,?,1,Prog,LateClosure,428.4,194.7416964,0
TeAsP_List4_1,Croatian,224,28,Prog_LateClosure,x,2643,x,Did Susan and her children live near her parents?,yes,,,,,,,,,,436,475,428,520,429,512,482,535,590,529,546,656,523,519,552,621,579,588,496,512,481,675,,,,,,,583.5,496.3333333,675,Aspect,5,no,,,,,,,,Susan,and,her,children,lived,far,from,her,parents.,When,Susan,was,visiting,the,friendly,neighbors,they,wanted,to,have,a,party.,?,?,?,?,?,?,1,Prog,LateClosure,618.854321,431.4276684,0
TeAsP_List4_1,Croatian,220,42,Prog_LateClosure,x,1780,x,Did Susan and her children live near her parents?,yes,,,,,,,,,,309,184,193,306,302,240,181,222,227,319,227,209,244,238,291,201,233,243,329,211,218,257,,,,,,,238,252.6666667,257,Aspect,5,no,,,,,,,,Susan,and,her,children,lived,far,from,her,parents.,When,Susan,was,visiting,the,friendly,neighbors,they,wanted,to,have,a,party.,?,?,?,?,?,?,1,Prog,LateClosure,279.0846995,112.1186965,0
TeAsP_List4_1,Croatian,212,67,Prog_LateClosure,x,4401,x,Did Susan and her children live near her parents?,yes,,,,,,,,,,259,391,252,258,255,514.1497932,280,366,324,462,318,321,292,258,237,323,284,284,236,297,256,241,,,,,,,284,263,241,Aspect,5,no,,,,,,,,Susan,and,her,children,lived,far,from,her,parents.,When,Susan,was,visiting,the,friendly,neighbors,they,wanted,to,have,a,party.,?,?,?,?,?,?,1,Prog,LateClosure,306.6814815,103.7341558,0
TeAsP_List4_1,Croatian,204,36,Prog_LateClosure,x,7864,x,Did Susan and her children live near her parents?,yes,,,,,,,,,,192,225,161,187,230,198,210,208,194,217,253,283,237,255,259,270,499,288,263,272,245,240,,,,,,,393.5,260,240,Aspect,5,no,,,,,,,,Susan,and,her,children,lived,far,from,her,parents.,When,Susan,was,visiting,the,friendly,neighbors,they,wanted,to,have,a,party.,?,?,?,?,?,?,1,Prog,LateClosure,373.3989071,1800.288474,0
TeAsP_List1_1,Croatian,241,25,Prog_LateClosure,x,2716,x,Was the flat tidy?,yes,,,,,,,,,,,309,455,336,523,136,298,523,187,259,221,268,329,206,292,243,367,254,361,248,468,,,,,,,,310.5,304.5,468,Aspect,6,no,,,,,,,,,The,flat,was,very,old,and,dirty.,Even,when,Joe,was,cleaning,the,small,kitchen,it,smelled,like,old,rubbish.,?,?,?,?,?,?,?,1,Prog,LateClosure,459.6756757,253.8155766,0
TeAsP_List1_1,Croatian,237,40,Prog_LateClosure,x,1477,x,Was the flat tidy?,yes,,,,,,,,,,,286,238,229,272,307,264,300,548,353,387,418,419,335,299,346,303,283,253,300,301,,,,,,,,293,276.5,301,Aspect,6,no,,,,,,,,,The,flat,was,very,old,and,dirty.,Even,when,Joe,was,cleaning,the,small,kitchen,it,smelled,like,old,rubbish.,?,?,?,?,?,?,?,1,Prog,LateClosure,302.0259366,127.1745127,0
TeAsP_List1_1,Croatian,233,50,Prog_LateClosure,x,1935,x,Was the flat tidy?,yes,,,,,,,,,,,678,468,610,659,428,454,1098.293544,630,357,623,392,1049,452,441,419,365,491,388,325,710,,,,,,,,428,356.5,710,Aspect,6,no,,,,,,,,,The,flat,was,very,old,and,dirty.,Even,when,Joe,was,cleaning,the,small,kitchen,it,smelled,like,old,rubbish.,?,?,?,?,?,?,?,1,Prog,LateClosure,538.2945736,279.9994851,0
TeAsP_List1_1,Croatian,229,58,Prog_LateClosure,x,2053,x,Was the flat tidy?,yes,,,,,,,,,,,399,367,375,421,339,401,385,496,327,349,354,392,399,456,431,411,354,340,341,337,,,,,,,,382.5,340.5,337,Aspect,6,no,,,,,,,,,The,flat,was,very,old,and,dirty.,Even,when,Joe,was,cleaning,the,small,kitchen,it,smelled,like,old,rubbish.,?,?,?,?,?,?,?,1,Prog,LateClosure,361.857513,89.35666966,0
TeAsP_List1_1,Croatian,225,43,Prog_LateClosure,x,1698,x,Was the flat tidy?,yes,,,,,,,,,,,199,264,488,309,351,386,462,294,267,453,312,357,267,290,436,311,227,373,322,429,,,,,,,,269,347.5,429,Aspect,6,no,,,,,,,,,The,flat,was,very,old,and,dirty.,Even,when,Joe,was,cleaning,the,small,kitchen,it,smelled,like,old,rubbish.,?,?,?,?,?,?,?,1,Prog,LateClosure,377.5135135,192.668202,0
TeAsP_List1_1,Croatian,221,4,Prog_LateClosure,x,2009,x,Was the flat tidy?,yes,,,,,,,,,,,414,262,344,285,297,349,551,367,314,292,319,291,355,284,353,393,349,330,341,552,,,,,,,,371,335.5,552,Aspect,6,no,,,,,,,,,The,flat,was,very,old,and,dirty.,Even,when,Joe,was,cleaning,the,small,kitchen,it,smelled,like,old,rubbish.,?,?,?,?,?,?,?,1,Prog,LateClosure,312.4889435,190.439384,0
TeAsP_List1_1,Croatian,217,55,Prog_LateClosure,x,1872,x,Was the flat tidy?,yes,,,,,,,,,,,397,409,429,796,372,323,372,923,414,437,359,453,326,306,402,333,407,327,396,328,,,,,,,,370,361.5,328,Aspect,6,no,,,,,,,,,The,flat,was,very,old,and,dirty.,Even,when,Joe,was,cleaning,the,small,kitchen,it,smelled,like,old,rubbish.,?,?,?,?,?,?,?,1,Prog,LateClosure,468.8567251,262.4951572,0
TeAsP_List1_1,Croatian,213,51,Prog_LateClosure,x,2410,x,Was the flat tidy?,yes,,,,,,,,,,,392,360,536,478,338,399,465,428,1002,328,557,359,350,382,467,380,454,375,438,1031.304968,,,,,,,,417,406.5,1031.305,Aspect,6,no,,,,,,,,,The,flat,was,very,old,and,dirty.,Even,when,Joe,was,cleaning,the,small,kitchen,it,smelled,like,old,rubbish.,?,?,?,?,?,?,?,1,Prog,LateClosure,540.6692506,245.3178588,0
TeAsP_List1_1,Croatian,209,50,Prog_LateClosure,x,1598,x,Was the flat tidy?,yes,,,,,,,,,,,300,332,351,152,313,285,283,343,188,192,423,252,343,244,333,230,189,303,237,336,,,,,,,,209.5,270,336,Aspect,6,no,,,,,,,,,The,flat,was,very,old,and,dirty.,Even,when,Joe,was,cleaning,the,small,kitchen,it,smelled,like,old,rubbish.,?,?,?,?,?,?,?,1,Prog,LateClosure,325.0930233,160.2005579,0
TeAsP_List1_1,Croatian,205,80,Prog_LateClosure,x,2016,x,Was the flat tidy?,yes,,,,,,,,,,,336,306,494,297,459,298,242,340,283,242,285,787,380,447,461,369,358,373,333,495,,,,,,,,363.5,353,495,Aspect,6,no,,,,,,,,,The,flat,was,very,old,and,dirty.,Even,when,Joe,was,cleaning,the,small,kitchen,it,smelled,like,old,rubbish.,?,?,?,?,?,?,?,1,Prog,LateClosure,567.7616708,234.1332486,0
TeAsP_List1_1,Croatian,201,45,Prog_LateClosure,x,1161,x,Was the flat tidy?,yes,,,,,,,,,,,515,423,424,364,341,721,274,478,275,777,318,573,387,380,339,390,55,285,413,391,,,,,,,,222.5,349,391,Aspect,6,no,,,,,,,,,The,flat,was,very,old,and,dirty.,Even,when,Joe,was,cleaning,the,small,kitchen,it,smelled,like,old,rubbish.,?,?,?,?,?,?,?,1,Prog,LateClosure,407.8931507,225.6052003,0
TeAsP_List2_1,Croatian,242,31,Prog_LateClosure,m,1821,m,Did the couple want to leave?,yes,,,,,,287,287,282,260,305,281,301,271,347,320,346,277,343,459,396,497,436,278,290,277,320,348,302,287,322,,,,,,,,334,294.5,322,Aspect,7,no,,,,The,couple,sitting,next,to,me,at,the,restaurant,got,up,to,leave.,As,I,was,watching,the,drunk,man,he,tripped,over,my,chair.,?,?,?,?,?,?,?,1,Prog,LateClosure,365.3049451,127.8038198,0
TeAsP_List2_1,Croatian,234,58,Prog_LateClosure,m,1941,m,Did the couple want to leave?,yes,,,,,,356,156,178,170,167,190,189,167,189,135,181,184,193,176,219,206,198,147,178,174,186,173,241,203,195,,,,,,,,179.5,222,195,Aspect,7,no,,,,The,couple,sitting,next,to,me,at,the,restaurant,got,up,to,leave.,As,I,was,watching,the,drunk,man,he,tripped,over,my,chair.,?,?,?,?,?,?,?,1,Prog,LateClosure,218.6675325,76.4408853,0
TeAsP_List2_1,Croatian,230,9,Prog_LateClosure,m,28117,m,Did the couple want to leave?,yes,,,,,,708,606,505,1196,1097,640,502,302,789,345,451,462,580,1174,348,907,387,382,931,526,535,472,548,697,562,,,,,,,,503.5,622.5,562,Aspect,7,no,,,,The,couple,sitting,next,to,me,at,the,restaurant,got,up,to,leave.,As,I,was,watching,the,drunk,man,he,tripped,over,my,chair.,?,?,?,?,?,?,?,1,Prog,LateClosure,742.4581281,614.5762263,0
TeAsP_List2_1,Croatian,222,60,Prog_LateClosure,m,1022,m,Did the couple want to leave?,yes,,,,,,350,223,158,179,246,181,187,190,201,170,221,162,195,197,205,198,159,152,191,195,205,189,244,198,225,,,,,,,,197,221,225,Aspect,7,no,,,,The,couple,sitting,next,to,me,at,the,restaurant,got,up,to,leave.,As,I,was,watching,the,drunk,man,he,tripped,over,my,chair.,?,?,?,?,?,?,?,1,Prog,LateClosure,280.6043956,109.2461058,0
TeAsP_List2_1,Croatian,214,1,Prog_LateClosure,m,3747,m,Did the couple want to leave?,yes,,,,,,602.5855002,563,602.5855002,602.5855002,432,487,426,417,438,416,385,377,602.5855002,602.5855002,478,406,433,383,566,602.5855002,556,509,602.5855002,453,430,,,,,,,,532.5,527.7927501,430,Aspect,7,no,,,,The,couple,sitting,next,to,me,at,the,restaurant,got,up,to,leave.,As,I,was,watching,the,drunk,man,he,tripped,over,my,chair.,?,?,?,?,?,?,?,1,Prog,LateClosure,355.9646739,123.3104131,0
TeAsP_List2_1,Croatian,210,39,Prog_LateClosure,m,9417,m,Did the couple want to leave?,yes,,,,,,351,344,405,481,479,893.0808997,266,229,235,343,254,734,211,446,358,516,198,330,552,524,445,524,893.0808997,646,540,,,,,,,,484.5,769.5404499,540,Aspect,7,no,,,,The,couple,sitting,next,to,me,at,the,restaurant,got,up,to,leave.,As,I,was,watching,the,drunk,man,he,tripped,over,my,chair.,?,?,?,?,?,?,?,1,Prog,LateClosure,475.3333333,208.8737832,0
TeAsP_List2_1,Croatian,202,31,Prog_LateClosure,m,2041,m,Did the couple want to leave?,yes,,,,,,481,258,250,256,290,234,271,222,277,549,513,247,324,299,197,239,219,222,210,198,204,313,225,294,318,,,,,,,,258.5,259.5,318,Aspect,7,no,,,,The,couple,sitting,next,to,me,at,the,restaurant,got,up,to,leave.,As,I,was,watching,the,drunk,man,he,tripped,over,my,chair.,?,?,?,?,?,?,?,1,Prog,LateClosure,300.8211921,127.8298531,0
TeAsP_List3_1,Croatian,243,41,Prog_LateClosure,x,2050,x,Were there three Italian chefs working at the restaurant?,yes,,,,,,,,,,279,301,327,333,350,485,443,314,560.2738281,560.2738281,446,300,303,297,313,278,409,288,298,278,302,560.2738281,,,,,,,348.5,292.6666667,560.2738281,Aspect,8,no,,,,,,,,There,were,two,Italian,chefs,working,in,the,restaurant.,Because,Mario,was,cooking,the,fresh,pasta,it,was,made,to,real,perfection.,?,?,?,?,?,?,1,Prog,LateClosure,343.0591133,108.6073574,0
TeAsP_List3_1,Croatian,239,84,Prog_LateClosure,x,1913,x,Were there three Italian chefs working at the restaurant?,yes,,,,,,,,,,971.5307173,289,246,314,354,357,360,303,675,953,209,301,263,276,298,239,299,277,276,250,265,971.5307173,,,,,,,288,263.6666667,971.5307173,Aspect,8,no,,,,,,,,There,were,two,Italian,chefs,working,in,the,restaurant.,Because,Mario,was,cooking,the,fresh,pasta,it,was,made,to,real,perfection.,?,?,?,?,?,?,1,Prog,LateClosure,396.2420749,287.6443212,0
TeAsP_List3_1,Croatian,235,73,Prog_LateClosure,x,2290,x,Were there three Italian chefs working at the restaurant?,yes,,,,,,,,,,321,183,238,273,337,600,420,480,344,555,218,302,327,356,235,279,274,272,271,344,312,658,,,,,,,273,309,658,Aspect,8,no,,,,,,,,There,were,two,Italian,chefs,working,in,the,restaurant.,Because,Mario,was,cooking,the,fresh,pasta,it,was,made,to,real,perfection.,?,?,?,?,?,?,1,Prog,LateClosure,418.2062663,260.1577183,0
TeAsP_List3_1,Croatian,231,79,Prog_LateClosure,x,2532,x,Were there three Italian chefs working at the restaurant?,yes,,,,,,,,,,357,326,365,348,311,294,305,251,340,355,555.0759754,322,357,346,299,328,297,367,305,352,325,377,,,,,,,332,327.3333333,377,Aspect,8,no,,,,,,,,There,were,two,Italian,chefs,working,in,the,restaurant.,Because,Mario,was,cooking,the,fresh,pasta,it,was,made,to,real,perfection.,?,?,?,?,?,?,1,Prog,LateClosure,331.183908,111.9460337,0
TeAsP_List3_1,Croatian,223,81,Prog_LateClosure,x,2881,x,Were there three Italian chefs working at the restaurant?,yes,,,,,,,,,,345,319,212,320,227,426,268,255,373,274,255,341,236,415,151,390,244,342,285,221,622.6477275,622.6477275,,,,,,,293,376.2159092,622.6477275,Aspect,8,no,,,,,,,,There,were,two,Italian,chefs,working,in,the,restaurant.,Because,Mario,was,cooking,the,fresh,pasta,it,was,made,to,real,perfection.,?,?,?,?,?,?,1,Prog,LateClosure,376.0714286,123.2881495,0
TeAsP_List3_1,Croatian,215,12,Prog_LateClosure,x,2480,x,Were there three Italian chefs working at the restaurant?,yes,,,,,,,,,,342,406,318,378,332,358,328,284,234,394,306,324,284,350,234,372,313,293,289,288,238,545.3233829,,,,,,,303,271.6666667,545.3233829,Aspect,8,no,,,,,,,,There,were,two,Italian,chefs,working,in,the,restaurant.,Because,Mario,was,cooking,the,fresh,pasta,it,was,made,to,real,perfection.,?,?,?,?,?,?,1,Prog,LateClosure,357.7938719,93.76475552,0
TeAsP_List3_1,Croatian,211,77,Prog_LateClosure,x,3737,x,Were there three Italian chefs working at the restaurant?,yes,,,,,,,,,,610,824,950,929,1126,510,442,466,811,707,327,436,497,379,566,460,465,373,384,476,453,1113,,,,,,,419,437.6666667,1113,Aspect,8,no,,,,,,,,There,were,two,Italian,chefs,working,in,the,restaurant.,Because,Mario,was,cooking,the,fresh,pasta,it,was,made,to,real,perfection.,?,?,?,?,?,?,1,Prog,LateClosure,724.9505495,427.4856051,0
TeAsP_List3_1,Croatian,203,38,Prog_LateClosure,x,2437,x,Were there three Italian chefs working at the restaurant?,yes,,,,,,,,,,301,277,296,297,276,321,320,233,307,324,246,492,272,300,268,360,327,283,264,298,294,456,,,,,,,305,285.3333333,456,Aspect,8,no,,,,,,,,There,were,two,Italian,chefs,working,in,the,restaurant.,Because,Mario,was,cooking,the,fresh,pasta,it,was,made,to,real,perfection.,?,?,?,?,?,?,1,Prog,LateClosure,341.56,117.633453,0
