Group,Participant,Trial,Response,Condition,Correct,q1,S1.RT,S2.RT,S3.RT,S4.RT,S5.RT,S6.RT,S7.RT,S8.RT,S9.RT,S10.RT,S11.RT,S12.RT,S13.RT,S14.RT,S15.RT,S16.RT,S17.RT,S18.RT,S19.RT,S20.RT,S21.RT,S22.RT,S23.RT,S24.RT,S25.RT,S26.RT,S27.RT,S28.RT,S29.RT,S30.RT,S31.RT,S32.RT,S33.RT,S34.RT,S35.RT,Disambiguation,Spillover,Final,Study,Item,w1,w2,w3,w4,w5,w6,w7,w8,w9,w10,w11,w12,w13,w14,w15,w16,w17,w18,w19,w20,w21,w22,w23,w24,w25,w26,w27,w28,w29,w30,w31,w32,w33,w34,w35,Accuracy,Aspect,Type,average,StandardDeviation,outlier
German,127,71,x,Prog_EarlyClosure,x,Was the bar full?,,,,,,,,344,390,388,436,257,421,319,295,375,369,314,429,418,470,331,332,334,581,413,302,343,,,,,,,,334,432,343,Aspect,1,,,,,,,,It,was,late,and,the,bar,was,full.,As,the,men,were,drinking,the,strong,beer,was,spilled,on,the,floor.,?,?,?,?,?,?,?,1,Prog,EarlyClosure,420.6395062,167.4573936,0
German,112,7,m,Prog_EarlyClosure,m,Did Alice and Jim decorate their house every year?,,,,,,,,,569,483,496,593,484,483,586,641,785,497,429,548,464,644,585,454,1252.726788,336,511,895,,,,,,,,454,699.9089293,895,Aspect,2,,,,,,,,,Alice,and,Jim,decorated,their,house,every,year.,When,Alice,was,painting,the,kitchen,walls,were,covered,with,many,drops.,?,?,?,?,?,?,?,1,Prog,EarlyClosure,595.7395833,328.4936023,0
German,116,23,m,Prog_EarlyClosure,m,Did Alice and Jim decorate their house every year?,,,,,,,,,224,273,241,352,275,270,235,236,247,247,230,231,258,245,299,288,408,281,207,281,,,,,,,,288,298.6666667,281,Aspect,2,,,,,,,,,Alice,and,Jim,decorated,their,house,every,year.,When,Alice,was,painting,the,kitchen,walls,were,covered,with,many,drops.,?,?,?,?,?,?,?,1,Prog,EarlyClosure,314.708642,176.6729532,0
German,120,34,m,Prog_EarlyClosure,m,Did Alice and Jim decorate their house every year?,,,,,,,,,370,289,264,294,297,284,281,299,323,250,293,329,298,293,331,281,309,284,334,301,,,,,,,,281,309,301,Aspect,2,,,,,,,,,Alice,and,Jim,decorated,their,house,every,year.,When,Alice,was,painting,the,kitchen,walls,were,covered,with,many,drops.,?,?,?,?,?,?,?,1,Prog,EarlyClosure,297.483871,99.74491529,0
German,124,13,m,Prog_EarlyClosure,m,Did Alice and Jim decorate their house every year?,,,,,,,,,474,658,433,869,556,343,437,930,358,444,416,819,435,560,533,410,1104,1298.098798,425,1298.098798,,,,,,,,410,942.3662662,1298.098798,Aspect,2,,,,,,,,,Alice,and,Jim,decorated,their,house,every,year.,When,Alice,was,painting,the,kitchen,walls,were,covered,with,many,drops.,?,?,?,?,?,?,?,1,Prog,EarlyClosure,516.468254,390.8152723,0
German,128,38,m,Prog_EarlyClosure,m,Did Alice and Jim decorate their house every year?,,,,,,,,,367,266,267,286,557.5749582,460,282,337,318,297,491,289,310,336,258,475,321,359,328,418,,,,,,,,475,336,418,Aspect,2,,,,,,,,,Alice,and,Jim,decorated,their,house,every,year.,When,Alice,was,painting,the,kitchen,walls,were,covered,with,many,drops.,?,?,?,?,?,?,?,1,Prog,EarlyClosure,347.8269795,104.8739893,0
German,132,3,m,Prog_EarlyClosure,m,Did Alice and Jim decorate their house every year?,,,,,,,,,547,559,867,515,443,405,433,836,516,427,405,508,398,379,395,582,881.9089502,429,464,825,,,,,,,,582,591.6363167,825,Aspect,2,,,,,,,,,Alice,and,Jim,decorated,their,house,every,year.,When,Alice,was,painting,the,kitchen,walls,were,covered,with,many,drops.,?,?,?,?,?,?,?,1,Prog,EarlyClosure,398.8825065,241.5132218,0
German,101,64,x,Prog_EarlyClosure,x,Did Tony hate to sing at parties?,,,,,,,,235,193,182,184,181,190,188,218,336.4161418,211,200,130,211,206,226,227,222,205,203,,,,,,,,,,222,205,203,Aspect,3,,,,,,,,Tony,and,his,friends,loved,to,sing,at,parties.,When,Tony,was,singing,the,drinking,song,sounded,like,opera.,,,,,,,,,,1,Prog,EarlyClosure,210.793911,62.81111538,0
German,105,59,x,Prog_EarlyClosure,x,Did Tony hate to sing at parties?,,,,,,,,647.4597109,338,317,329,367,317,364,339,303,334,325,335,318,341,323,341,332,616,351,,,,,,,,,,332,616,351,Aspect,3,,,,,,,,Tony,and,his,friends,loved,to,sing,at,parties.,When,Tony,was,singing,the,drinking,song,sounded,like,opera.,?,?,?,?,?,?,?,?,?,1,Prog,EarlyClosure,377.6787565,134.8904772,0
German,109,1,x,Prog_EarlyClosure,x,Did Tony hate to sing at parties?,,,,,,,,347,230,231,207,246,198,234,240,254,329,279,268,286,290,259,283,360,382,534.0020436,,,,,,,,,,360,382,534.0020436,Aspect,3,,,,,,,,Tony,and,his,friends,loved,to,sing,at,parties.,When,Tony,was,singing,the,drinking,song,sounded,like,opera.,?,?,?,?,?,?,?,?,?,1,Prog,EarlyClosure,269.1576227,132.4222105,0
German,113,52,x,Prog_EarlyClosure,x,Did Tony hate to sing at parties?,,,,,,,,1047.596198,658,1047.596198,448,693,929,744,570,1047.596198,702,717,702,593,611,523,535,587,656,808,,,,,,,,,,587,656,808,Aspect,3,,,,,,,,Tony,and,his,friends,loved,to,sing,at,parties.,When,Tony,was,singing,the,drinking,song,sounded,like,opera.,?,?,?,?,?,?,?,?,?,1,Prog,EarlyClosure,674.1780822,186.7090582,0
German,117,8,x,Prog_EarlyClosure,x,Did Tony hate to sing at parties?,,,,,,,,496,465,422,467,443,434,404,355,445,417,414,395,427,371,555.4754794,340,435,485,555.4754794,,,,,,,,,,435,485,555.4754794,Aspect,3,,,,,,,,Tony,and,his,friends,loved,to,sing,at,parties.,When,Tony,was,singing,the,drinking,song,sounded,like,opera.,?,?,?,?,?,?,?,?,?,1,Prog,EarlyClosure,319.9164619,117.7795087,0
German,125,8,x,Prog_EarlyClosure,x,Did Tony hate to sing at parties?,,,,,,,,492,415,414,428,320,385,417,419,286,418,356,344,338,447,410,460,964.6210641,501,964.6210641,,,,,,,,,,964.6210641,501,964.6210641,Aspect,3,,,,,,,,Tony,and,his,friends,loved,to,sing,at,parties.,When,Tony,was,singing,the,drinking,song,sounded,like,opera.,?,?,?,?,?,?,?,?,?,1,Prog,EarlyClosure,495.1351351,234.7429645,0
German,129,73,x,Prog_EarlyClosure,x,Did Tony hate to sing at parties?,,,,,,,,557,400,360,566,572,567,312,326,348,540,340,343,335,340,400,487,830,352,311,,,,,,,,,,830,352,311,Aspect,3,,,,,,,,Tony,and,his,friends,loved,to,sing,at,parties.,When,Tony,was,singing,the,drinking,song,sounded,like,opera.,?,?,?,?,?,?,?,?,?,1,Prog,EarlyClosure,539.7100737,217.3137757,0
German,106,46,m,Prog_EarlyClosure,m,Did John and Sam take their guns into the woods?,,,,,,,1064.858778,320,403,474,388,477,452,387,539,477,440,510,481,589,465,711,447,1064.858778,425,463,382,485,,,,,,,,1064.858778,423.3333333,485,Aspect,4,,,,,,,John,and,Sam,took,their,guns,out,into,the,woods.,As,John,was,hunting,the,frightened,rabbit,escaped,through,the,dark,trees.,?,?,?,?,?,?,?,1,Prog,EarlyClosure,592.5655527,236.1466124,0
German,110,45,m,Prog_EarlyClosure,m,Did John and Sam take their guns into the woods?,,,,,,,584,494,763,389,213,443,331,662,602,281,447,309,253,316,277,233,298,281,621,321,165,363,,,,,,,,281,369,363,Aspect,4,,,,,,,John,and,Sam,took,their,guns,out,into,the,woods.,As,John,was,hunting,the,frightened,rabbit,escaped,through,the,dark,trees.,?,?,?,?,?,?,?,1,Prog,EarlyClosure,407.8549383,228.8155639,0
German,114,68,m,Prog_EarlyClosure,m,Did John and Sam take their guns into the woods?,,,,,,,168,149,198,208,199,104,194,196,212,180,280,233,184,90,342,208,209,192,217,290,249,281,,,,,,,,192,252,281,Aspect,4,,,,,,,John,and,Sam,took,their,guns,out,into,the,woods.,As,John,was,hunting,the,frightened,rabbit,escaped,through,the,dark,trees.,?,?,?,?,?,?,?,1,Prog,EarlyClosure,244.2675325,90.69660347,0
German,118,51,m,Prog_EarlyClosure,m,Did John and Sam take their guns into the woods?,,,,,,,400,332,393,359,309,429,461,484,273,410,359,283,441,253,311,387,445,376,370,395,381,638.1793758,,,,,,,,376,382,638.1793758,Aspect,4,,,,,,,John,and,Sam,took,their,guns,out,into,the,woods.,As,John,was,hunting,the,frightened,rabbit,escaped,through,the,dark,trees.,?,?,?,?,?,?,?,1,Prog,EarlyClosure,434.2536946,101.9628406,0
German,122,67,m,Prog_EarlyClosure,m,Did John and Sam take their guns into the woods?,,,,,,,590.1241498,251,474,374,432,375,162,260,199,177,417,235,195,219,281,369,486,506,590.1241498,468,257,216,,,,,,,,506,438.3747166,216,Aspect,4,,,,,,,John,and,Sam,took,their,guns,out,into,the,woods.,As,John,was,hunting,the,frightened,rabbit,escaped,through,the,dark,trees.,?,?,?,?,?,?,?,1,Prog,EarlyClosure,321.2170543,134.4535478,0
German,126,57,m,Prog_EarlyClosure,m,Did John and Sam take their guns into the woods?,,,,,,,467,469,357,396,469,693,445,331,285,278,404,287,285,259,354,992,412,491,447,351,608,414,,,,,,,,491,468.6666667,414,Aspect,4,,,,,,,John,and,Sam,took,their,guns,out,into,the,woods.,As,John,was,hunting,the,frightened,rabbit,escaped,through,the,dark,trees.,?,?,?,?,?,?,?,1,Prog,EarlyClosure,518.7623188,365.5283114,0
German,103,60,x,Prog_EarlyClosure,x,Did Susan and her children live near her parents?,,,,,,,,316,324,400,364,315,352,307,317,355,308,340,361,346,339,299,726,339,392,305,323,312,,,,,,,,339,340,312,Aspect,5,,,,,,,,Susan,and,her,children,lived,far,from,her,parents.,When,Susan,was,visiting,the,friendly,neighbors,wanted,to,have,a,party.,?,?,?,?,?,?,?,1,Prog,EarlyClosure,425.5492611,162.3611989,0
German,115,30,x,Prog_EarlyClosure,x,Did Susan and her children live near her parents?,,,,,,,,858,325,259,498,300,296,526,358,1442.010084,446,377,386,436,341,535,556,953,452,392,419,1442.010084,,,,,,,,953,421,1442.010084,Aspect,5,,,,,,,,Susan,and,her,children,lived,far,from,her,parents.,When,Susan,was,visiting,the,friendly,neighbors,wanted,to,have,a,party.,?,?,?,?,?,?,?,1,Prog,EarlyClosure,639.4742268,401.2679284,0
German,119,20,x,Prog_EarlyClosure,x,Did Susan and her children live near her parents?,,,,,,,,392,317,296,391,326,273,292,276,326,313,304,275,272,334,775.0571278,443,312,331,297,313,396,,,,,,,,312,313.6666667,396,Aspect,5,,,,,,,,Susan,and,her,children,lived,far,from,her,parents.,When,Susan,was,visiting,the,friendly,neighbors,wanted,to,have,a,party.,?,?,?,?,?,?,?,1,Prog,EarlyClosure,386.2395833,194.4087722,0
German,127,68,x,Prog_EarlyClosure,x,Did Susan and her children live near her parents?,,,,,,,,362,461,456,341,357,365,405,336,417,372,345,348,394,364,337,397,397,456,713,280,330,,,,,,,,397,483,330,Aspect,5,,,,,,,,Susan,and,her,children,lived,far,from,her,parents.,When,Susan,was,visiting,the,friendly,neighbors,wanted,to,have,a,party.,?,?,?,?,?,?,?,1,Prog,EarlyClosure,420.6395062,167.4573936,0
German,112,74,x,Prog_EarlyClosure,x,Was the flat tidy?,,,,,,,,,395,355,406,416,382,573,415,466,398,427,398,455,347,374,548,639,947,369,822,,,,,,,,,639,658,822,Aspect,6,,,,,,,,,The,flat,was,very,old,and,dirty.,Even,when,Joe,was,cleaning,the,small,kitchen,smelled,like,old,rubbish.,?,?,?,?,?,?,?,?,1,Prog,EarlyClosure,595.7395833,328.4936023,0
German,116,75,x,Prog_EarlyClosure,x,Was the flat tidy?,,,,,,,,,369,165,148,146,154,315,184,179,164,141,144,177,413,155,132,193,226,202,477,,,,,,,,,193,214,477,Aspect,6,,,,,,,,,The,flat,was,very,old,and,dirty.,Even,when,Joe,was,cleaning,the,small,kitchen,smelled,like,old,rubbish.,?,?,?,?,?,?,?,?,1,Prog,EarlyClosure,314.708642,176.6729532,0
German,120,74,x,Prog_EarlyClosure,x,Was the flat tidy?,,,,,,,,,204,208,200,227,431,203,196,234,276,191,212,131,284,496.9737016,224,263,232,302,207,,,,,,,,,263,267,207,Aspect,6,,,,,,,,,The,flat,was,very,old,and,dirty.,Even,when,Joe,was,cleaning,the,small,kitchen,smelled,like,old,rubbish.,?,?,?,?,?,?,?,?,1,Prog,EarlyClosure,297.483871,99.74491529,0
German,124,50,x,Prog_EarlyClosure,x,Was the flat tidy?,,,,,,,,,207,700,510,308,193,699,287,445,436,289,372,472,331,358,251,441,960,294,1215,,,,,,,,,441,627,1215,Aspect,6,,,,,,,,,The,flat,was,very,old,and,dirty.,Even,when,Joe,was,cleaning,the,small,kitchen,smelled,like,old,rubbish.,?,?,?,?,?,?,?,?,1,Prog,EarlyClosure,516.468254,390.8152723,0
German,128,81,x,Prog_EarlyClosure,x,Was the flat tidy?,,,,,,,,,507,531,254,278,281,235,308,284,250,341,217,232,278,247,225,267,296,271,323,,,,,,,,,267,283.5,323,Aspect,6,,,,,,,,,The,flat,was,very,old,and,dirty.,Even,when,Joe,was,cleaning,the,small,kitchen,smelled,like,old,rubbish.,?,?,?,?,?,?,?,?,1,Prog,EarlyClosure,347.8269795,104.8739893,0
German,132,15,x,Prog_EarlyClosure,x,Was the flat tidy?,,,,,,,,,881.9089502,313,607,409,169,414,881.9089502,384,255,315,354,407,336,294,443,531,881.9089502,352,455,,,,,,,,,531,616.9544751,455,Aspect,6,,,,,,,,,The,flat,was,very,old,and,dirty.,Even,when,Joe,was,cleaning,the,small,kitchen,smelled,like,old,rubbish.,?,?,?,?,?,?,?,?,1,Prog,EarlyClosure,398.8825065,241.5132218,0
German,101,47,m,Prog_EarlyClosure,m,Did the couple want to leave?,,,,173,202,167,167,160,200,204,214,190,186,196,170,148,206,208,188,218,163,173,174,201,182,213,182,,,,,,,,,201,197.5,182,Aspect,7,,,,The,couple,sitting,next,to,me,at,the,restaurant,got,up,to,leave.,As,I,was,watching,the,drunk,man,tripped,over,my,chair.,,,,,,,,,1,Prog,EarlyClosure,210.793911,62.81111538,0
German,105,43,m,Prog_EarlyClosure,m,Did the couple want to leave?,,,,319,269,302,373,477,416,361,361,296,335,308,322,326,310,309,309,366,316,315,334,349,396,380,362,,,,,,,,,349,388,362,Aspect,7,,,,The,couple,sitting,next,to,me,at,the,restaurant,got,up,to,leave.,As,I,was,watching,the,drunk,man,tripped,over,my,chair.,?,?,?,?,?,?,?,?,1,Prog,EarlyClosure,377.6787565,134.8904772,0
German,109,53,m,Prog_EarlyClosure,m,Did the couple want to leave?,,,,233,210,250,290,282,282,269,278,258,239,267,274,249,347,247,252,245,298,236,265,245,299,256,290,,,,,,,,,245,277.5,290,Aspect,7,,,,The,couple,sitting,next,to,me,at,the,restaurant,got,up,to,leave.,As,I,was,watching,the,drunk,man,tripped,over,my,chair.,?,?,?,?,?,?,?,?,1,Prog,EarlyClosure,269.1576227,132.4222105,0
German,113,22,m,Prog_EarlyClosure,m,Did the couple want to leave?,,,,757,790,762,725,610,621,707,537,709,658,583,627,644,713,629,629,649,685,635,607,645,1047.596198,844,798,,,,,,,,,645,945.7980992,798,Aspect,7,,,,The,couple,sitting,next,to,me,at,the,restaurant,got,up,to,leave.,As,I,was,watching,the,drunk,man,tripped,over,my,chair.,?,?,?,?,?,?,?,?,1,Prog,EarlyClosure,674.1780822,186.7090582,0
German,117,47,m,Prog_EarlyClosure,m,Did the couple want to leave?,,,,277,256,278,221,222,249,203,236,240,233,259,214,255,259,264,211,225,277,328,244,275,276,265,305,,,,,,,,,275,270.5,305,Aspect,7,,,,The,couple,sitting,next,to,me,at,the,restaurant,got,up,to,leave.,As,I,was,watching,the,drunk,man,tripped,over,my,chair.,?,?,?,?,?,?,?,?,1,Prog,EarlyClosure,319.9164619,117.7795087,0
German,125,1,m,Prog_EarlyClosure,m,Did the couple want to leave?,,,,897,506,494,468,402,450,365,527,512,513,404,405,527,707,964.6210641,548,682,479,532,518,964.6210641,600,523,573,,,,,,,,,964.6210641,561.5,573,Aspect,7,,,,The,couple,sitting,next,to,me,at,the,restaurant,got,up,to,leave.,As,I,was,watching,the,drunk,man,tripped,over,my,chair.,?,?,?,?,?,?,?,?,1,Prog,EarlyClosure,495.1351351,234.7429645,0
German,129,24,m,Prog_EarlyClosure,m,Did the couple want to leave?,,,,445,551,598,663,444,636,403,381,467,498,371,398,895,974.3376252,343,363,604,384,423,852,687,624,967,712,,,,,,,,,687,795.5,712,Aspect,7,,,,The,couple,sitting,next,to,me,at,the,restaurant,got,up,to,leave.,As,I,was,watching,the,drunk,man,tripped,over,my,chair.,?,?,?,?,?,?,?,?,1,Prog,EarlyClosure,539.7100737,217.3137757,0
German,106,63,x,Prog_EarlyClosure,x,Were there three Italian chefs working at the restaurant?,,,,,,,,352,368,374,1062,575,534,650,490,639,726,698,453,517,515,420,370,432,728,754,500,633,,,,,,,,432,660.6666667,633,Aspect,8,,,,,,,,There,were,two,Italian,chefs,working,in,the,restaurant.,Because,Mario,was,cooking,the,fresh,pasta,was,made,to,real,perfection.,?,?,?,?,?,?,?,1,Prog,EarlyClosure,592.5655527,236.1466124,0
German,110,80,x,Prog_EarlyClosure,x,Were there three Italian chefs working at the restaurant?,,,,,,,,706,283,325,645,317,310,297,298,865.4860661,293,266,411,355,306,626,320,298,865.4860661,226,266,650,,,,,,,,298,452.4953554,650,Aspect,8,,,,,,,,There,were,two,Italian,chefs,working,in,the,restaurant.,Because,Mario,was,cooking,the,fresh,pasta,was,made,to,real,perfection.,?,?,?,?,?,?,?,1,Prog,EarlyClosure,407.8549383,228.8155639,0
German,114,45,x,Prog_EarlyClosure,x,Were there three Italian chefs working at the restaurant?,,,,,,,,272,235,241,391,221,223,205,227,201,214,324,297,279,253,247,224,219,214,224,268,425.6607394,,,,,,,,219,235.3333333,425.6607394,Aspect,8,,,,,,,,There,were,two,Italian,chefs,working,in,the,restaurant.,Because,Mario,was,cooking,the,fresh,pasta,was,made,to,real,perfection.,?,?,?,?,?,?,?,1,Prog,EarlyClosure,244.2675325,90.69660347,0
German,118,50,x,Prog_EarlyClosure,x,Were there three Italian chefs working at the restaurant?,,,,,,,,425,400,394,397,517,310,393,357,448,349,399,346,456,349,370,360,339,337,338,349,631,,,,,,,,339,341.3333333,631,Aspect,8,,,,,,,,There,were,two,Italian,chefs,working,in,the,restaurant.,Because,Mario,was,cooking,the,fresh,pasta,was,made,to,real,perfection.,?,?,?,?,?,?,?,1,Prog,EarlyClosure,434.2536946,101.9628406,0
German,122,47,x,Prog_EarlyClosure,x,Were there three Italian chefs working at the restaurant?,,,,,,,,552,162,227,188,355,242,290,237,219,342,277,285,525,287,222,301,260,284,381,295,549,,,,,,,,260,320,549,Aspect,8,,,,,,,,There,were,two,Italian,chefs,working,in,the,restaurant.,Because,Mario,was,cooking,the,fresh,pasta,was,made,to,real,perfection.,?,?,?,?,?,?,?,1,Prog,EarlyClosure,321.2170543,134.4535478,0
German,126,55,x,Prog_EarlyClosure,x,Were there three Italian chefs working at the restaurant?,,,,,,,,402,372,350,312,299,378,522,346,419,437,464,416,718,390,349,361,318,1249.818942,492,223,1249.818942,,,,,,,,318,654.9396472,1249.818942,Aspect,8,,,,,,,,There,were,two,Italian,chefs,working,in,the,restaurant.,Because,Mario,was,cooking,the,fresh,pasta,was,made,to,real,perfection.,?,?,?,?,?,?,?,1,Prog,EarlyClosure,518.7623188,365.5283114,0
German,103,5,m,Prog_EarlyClosure,m,Were there different kinds of vehicles at the company?,,,,,,,450,559,524,467,455,472,750.2716589,526,371,404,416,425,455,631,422,410,456,546,448,521,699,478,,,,,,,,546,556,478,Aspect,9,,,,,,,There,were,many,different,kinds,of,vehicles,at,the,company.,When,George,was,driving,the,big,lorry,made,loud,and,strange,noises.,?,?,?,?,?,?,?,1,Prog,EarlyClosure,425.5492611,162.3611989,0
German,111,60,m,Prog_EarlyClosure,m,Were there different kinds of vehicles at the company?,,,,,,,314,238,377,210,278,249,331,374,238,343,243,292,290,278,246,261,292,242,336,260,292,298,,,,,,,,242,296,298,Aspect,9,,,,,,,There,were,many,different,kinds,of,vehicles,at,the,company.,When,George,was,driving,the,big,lorry,made,loud,and,strange,noises.,?,?,?,?,?,?,?,1,Prog,EarlyClosure,363.7988338,112.2026374,0
German,115,64,m,Prog_EarlyClosure,m,Were there different kinds of vehicles at the company?,,,,,,,437,353,545,464,883,481,1035,1174,552,1361,541,226,510,482,724,408,440,1078,310,402,482,457,,,,,,,,1078,398,457,Aspect,9,,,,,,,There,were,many,different,kinds,of,vehicles,at,the,company.,When,George,was,driving,the,big,lorry,made,loud,and,strange,noises.,?,?,?,?,?,?,?,1,Prog,EarlyClosure,639.4742268,401.2679284,0
German,127,47,m,Prog_EarlyClosure,m,Were there different kinds of vehicles at the company?,,,,,,,416,548,482,452,433,388,390,408,394,345,419,380,400,318,385,433,402,414,475,390,481,397,,,,,,,,414,448.6666667,397,Aspect,9,,,,,,,There,were,many,different,kinds,of,vehicles,at,the,company.,When,George,was,driving,the,big,lorry,made,loud,and,strange,noises.,?,?,?,?,?,?,?,1,Prog,EarlyClosure,420.6395062,167.4573936,0
German,112,9,m,Prog_EarlyClosure,m,Did the opera company have three different conductors?,,,,,,,,,598,607,499,551,647,561,1026,1059,581,559,624,641,546,764,1252.726788,1252.726788,482,503,576,470,,,,,,,,1252.726788,520.3333333,470,Aspect,10,,,,,,,,,The,opera,company,had,three,different,conductors.,When,Mr.,Osaka,was,conducting,the,symphony,orchestra,played,better,than,anyone,else.,?,?,?,?,?,?,?,1,Prog,EarlyClosure,595.7395833,328.4936023,0
German,116,35,m,Prog_EarlyClosure,m,Did the opera company have three different conductors?,,,,,,,,,611,170,244,668.0545484,232,226,422,442,318,402,605,504,351,456,338,428,301,362,275,271,,,,,,,,428,312.6666667,271,Aspect,10,,,,,,,,,The,opera,company,had,three,different,conductors.,When,Mr.,Osaka,was,conducting,the,symphony,orchestra,played,better,than,anyone,else.,?,?,?,?,?,?,?,1,Prog,EarlyClosure,314.708642,176.6729532,0
German,124,77,m,Prog_EarlyClosure,m,Did the opera company have three different conductors?,,,,,,,,,234,379,319,402,315,380,336,627,274,378,402,401,372,349,455,296,302,484,377,663,,,,,,,,296,387.6666667,663,Aspect,10,,,,,,,,,The,opera,company,had,three,different,conductors.,When,Mr.,Osaka,was,conducting,the,symphony,orchestra,played,better,than,anyone,else.,?,?,?,?,?,?,?,1,Prog,EarlyClosure,516.468254,390.8152723,0
German,128,30,m,Prog_EarlyClosure,m,Did the opera company have three different conductors?,,,,,,,,,402,257,231,259,309,454,382,349,358,306,349,471,308,314,324,312,557.5749582,291,316,327,,,,,,,,312,388.1916527,327,Aspect,10,,,,,,,,,The,opera,company,had,three,different,conductors.,When,Mr.,Osaka,was,conducting,the,symphony,orchestra,played,better,than,anyone,else.,?,?,?,?,?,?,?,1,Prog,EarlyClosure,347.8269795,104.8739893,0
German,132,30,m,Prog_EarlyClosure,m,Did the opera company have three different conductors?,,,,,,,,,390,373,270,358,286,248,257,344,287,259,270,253,226,198,291,235,601,542,501,675,,,,,,,,235,548,675,Aspect,10,,,,,,,,,The,opera,company,had,three,different,conductors.,When,Mr.,Osaka,was,conducting,the,symphony,orchestra,played,better,than,anyone,else.,?,?,?,?,?,?,?,1,Prog,EarlyClosure,398.8825065,241.5132218,0
German,101,3,m,Prog_EarlyClosure,m,Was the town safe?,,,,,,,307,336.4161418,272,336.4161418,198,336.4161418,268,336.4161418,245,284,238,217,223,207,336.4161418,290,231,217,179,200,189,,,,,,,,,217,189.5,189,Aspect,11,,,,,,,On,Saturday,"nights,",the,police,department,was,very,busy.,When,the,sheriff,was,patrolling,the,whole,town,was,safe,and,secure.,,,,,,,,,1,Prog,EarlyClosure,210.793911,62.81111538,0
German,105,37,m,Prog_EarlyClosure,m,Was the town safe?,,,,,,,284,261,297,347,346,251,378,355,287,308,266,478,290,381,410,320,285,318,338,321,290,,,,,,,,,318,329.5,290,Aspect,11,,,,,,,On,Saturday,"nights,",the,police,department,was,very,busy.,When,the,sheriff,was,patrolling,the,whole,town,was,safe,and,secure.,?,?,?,?,?,?,?,?,1,Prog,EarlyClosure,377.6787565,134.8904772,0
German,109,55,m,Prog_EarlyClosure,m,Was the town safe?,,,,,,,226,283,241,232,291,252,277,267,230,206,290,234,236,239,277,179,219,207,230,222,232,,,,,,,,,207,226,232,Aspect,11,,,,,,,On,Saturday,"nights,",the,police,department,was,very,busy.,When,the,sheriff,was,patrolling,the,whole,town,was,safe,and,secure.,?,?,?,?,?,?,?,?,1,Prog,EarlyClosure,269.1576227,132.4222105,0
German,113,31,m,Prog_EarlyClosure,m,Was the town safe?,,,,,,,677,817,865,1047.596198,1045,896,627,549,575,937,660,1047.596198,952,806,959,608,611,652,575,613,603,,,,,,,,,652,594,603,Aspect,11,,,,,,,On,Saturday,"nights,",the,police,department,was,very,busy.,When,the,sheriff,was,patrolling,the,whole,town,was,safe,and,secure.,?,?,?,?,?,?,?,?,1,Prog,EarlyClosure,674.1780822,186.7090582,0
German,117,24,m,Prog_EarlyClosure,m,Was the town safe?,,,,,,,555.4754794,492,463,310,411,555.4754794,354,356,332,372,275,317,315,441,353,350,360,356,357,331,401,,,,,,,,,356,344,401,Aspect,11,,,,,,,On,Saturday,"nights,",the,police,department,was,very,busy.,When,the,sheriff,was,patrolling,the,whole,town,was,safe,and,secure.,?,?,?,?,?,?,?,?,1,Prog,EarlyClosure,319.9164619,117.7795087,0
German,125,12,m,Prog_EarlyClosure,m,Was the town safe?,,,,,,,964.6210641,510,464,760,521,592,428,420,457,602,491,681,453,401,806,703,420,964.6210641,964.6210641,964.6210641,791,,,,,,,,,964.6210641,964.6210641,791,Aspect,11,,,,,,,On,Saturday,"nights,",the,police,department,was,very,busy.,When,the,sheriff,was,patrolling,the,whole,town,was,safe,and,secure.,?,?,?,?,?,?,?,?,1,Prog,EarlyClosure,495.1351351,234.7429645,0
German,129,22,m,Prog_EarlyClosure,m,Was the town safe?,,,,,,,596,452,587,406,585,729,389,414,853,601,430,396,444,769,542,568,831,847,574,717,974.3376252,,,,,,,,,847,645.5,974.3376252,Aspect,11,,,,,,,On,Saturday,"nights,",the,police,department,was,very,busy.,When,the,sheriff,was,patrolling,the,whole,town,was,safe,and,secure.,?,?,?,?,?,?,?,?,1,Prog,EarlyClosure,539.7100737,217.3137757,0
German,106,42,m,Prog_EarlyClosure,m,Did the horse jump a fence?,,,,,,,,,447,369,429,480,433,447,434,321,635,610,363,428,600,478,465,464,941,805,480,346,359,,,,,,,464,643,359,Aspect,12,,,,,,,,,Jenny,and,Sam,went,out,for,a,ride.,While,Jenny,was,riding,the,young,horse,decided,to,jump,a,high,fence.,?,?,?,?,?,?,1,Prog,EarlyClosure,592.5655527,236.1466124,0
German,110,18,m,Prog_EarlyClosure,m,Did the horse jump a fence?,,,,,,,,,434,442,865.4860661,662,413,376,317,466,806,325,498,370,395,535,352,330,348,704,575,424,638,,,,,,,330,512.75,638,Aspect,12,,,,,,,,,Jenny,and,Sam,went,out,for,a,ride.,While,Jenny,was,riding,the,young,horse,decided,to,jump,a,high,fence.,?,?,?,?,?,?,1,Prog,EarlyClosure,407.8549383,228.8155639,0
German,114,43,m,Prog_EarlyClosure,m,Did the horse jump a fence?,,,,,,,,,219,67,226,179,425.6607394,203,208,185,187,346,224,212,195,206,266,153,175,291,242,248,199,,,,,,,153,239,199,Aspect,12,,,,,,,,,Jenny,and,Sam,went,out,for,a,ride.,While,Jenny,was,riding,the,young,horse,decided,to,jump,a,high,fence.,?,?,?,?,?,?,1,Prog,EarlyClosure,244.2675325,90.69660347,0
German,118,16,m,Prog_EarlyClosure,m,Did the horse jump a fence?,,,,,,,,,447,434,399,371,377,373,374,336,408,374,359,333,386,356,373,367,397,394,375,419,554,,,,,,,367,396.25,554,Aspect,12,,,,,,,,,Jenny,and,Sam,went,out,for,a,ride.,While,Jenny,was,riding,the,young,horse,decided,to,jump,a,high,fence.,?,?,?,?,?,?,1,Prog,EarlyClosure,434.2536946,101.9628406,0
German,122,21,m,Prog_EarlyClosure,m,Did the horse jump a fence?,,,,,,,,,526,242,260,590.1241498,353,447,266,345,392,255,240,310,427,346,256,243,267,321,427,303,285,,,,,,,243,329.5,285,Aspect,12,,,,,,,,,Jenny,and,Sam,went,out,for,a,ride.,While,Jenny,was,riding,the,young,horse,decided,to,jump,a,high,fence.,?,?,?,?,?,?,1,Prog,EarlyClosure,321.2170543,134.4535478,0
German,126,52,m,Prog_EarlyClosure,m,Did the horse jump a fence?,,,,,,,,,437,411,413,383,336,388,370,386,406,391,375,385,386,644,714,1173,547,355,383,361,446,,,,,,,1173,411.5,446,Aspect,12,,,,,,,,,Jenny,and,Sam,went,out,for,a,ride.,While,Jenny,was,riding,the,young,horse,decided,to,jump,a,high,fence.,?,?,?,?,?,?,1,Prog,EarlyClosure,518.7623188,365.5283114,0
German,103,11,x,Prog_EarlyClosure,x,Were the workers lazy?,,,,,,,750.2716589,503,447,563,493,484,566,750.2716589,510,576,480,750.2716589,485,501,560,572,678,599,706,593,,,,,,,,,,599,706,593,Aspect,13,,,,,,,Maggie,and,Fred,were,the,two,supervisors,at,the,factory.,When,Maggie,was,supervising,the,night,staff,worked,extremely,efficiently.,?,?,?,?,?,?,?,?,?,1,Prog,EarlyClosure,425.5492611,162.3611989,0
German,111,15,x,Prog_EarlyClosure,x,Were the workers lazy?,,,,,,,374,485,403,283,296,386,338,569,385,321,447,373,329,588.2041086,318,394,400,356,368,409,,,,,,,,,,356,368,409,Aspect,13,,,,,,,Maggie,and,Fred,were,the,two,supervisors,at,the,factory.,When,Maggie,was,supervising,the,night,staff,worked,extremely,efficiently.,?,?,?,?,?,?,?,?,?,1,Prog,EarlyClosure,363.7988338,112.2026374,0
German,115,36,x,Prog_EarlyClosure,x,Were the workers lazy?,,,,,,,1039,280,387,608,291,360,1442.010084,392,352,1389,459,388,446,830,719,1442.010084,763,1139,407,1392,,,,,,,,,,1139,407,1392,Aspect,13,,,,,,,Maggie,and,Fred,were,the,two,supervisors,at,the,factory.,When,Maggie,was,supervising,the,night,staff,worked,extremely,efficiently.,?,?,?,?,?,?,?,?,?,1,Prog,EarlyClosure,639.4742268,401.2679284,0
German,119,11,x,Prog_EarlyClosure,x,Were the workers lazy?,,,,,,,636,384,293,775.0571278,232,214,478,249,259,283,424,460,321,266,396,348,646,337,775.0571278,302,,,,,,,,,,337,775.0571278,302,Aspect,13,,,,,,,Maggie,and,Fred,were,the,two,supervisors,at,the,factory.,When,Maggie,was,supervising,the,night,staff,worked,extremely,efficiently.,?,?,?,?,?,?,?,?,?,1,Prog,EarlyClosure,386.2395833,194.4087722,0
German,127,64,x,Prog_EarlyClosure,x,Were the workers lazy?,,,,,,,428,373,278,469,296,353,403,383,358,323,342,443,401,436,364,422,404,755.5542935,755.5542935,350,,,,,,,,,,755.5542935,755.5542935,350,Aspect,13,,,,,,,Maggie,and,Fred,were,the,two,supervisors,at,the,factory.,When,Maggie,was,supervising,the,night,staff,worked,extremely,efficiently.,?,?,?,?,?,?,?,?,?,1,Prog,EarlyClosure,420.6395062,167.4573936,0
German,112,58,x,Prog_EarlyClosure,x,Did the ice-cream drop down the boyÍs pants?,,,,,,,478,391,443,409,415,389,434,426,1252.726788,529,457,407,369,432,475,522,541,1252.726788,520,574,718,938,,,,,,,,1252.726788,604,938,Aspect,14,,,,,,,In,the,"park,",two,children,were,eating,some,ice-cream.,As,the,boy,was,eating,the,chocolate,ice-cream,dropped,down,his,clean,shirt.,?,?,?,?,?,?,?,1,Prog,EarlyClosure,595.7395833,328.4936023,0
German,116,12,x,Prog_EarlyClosure,x,Did the ice-cream drop down the boyÍs pants?,,,,,,,282,214,232,399,253,313,271,227,422,304,274,232,276,668.0545484,298,336,525,267,551,292,314,417,,,,,,,,267,385.6666667,417,Aspect,14,,,,,,,In,the,"park,",two,children,were,eating,some,ice-cream.,As,the,boy,was,eating,the,chocolate,ice-cream,dropped,down,his,clean,shirt.,?,?,?,?,?,?,?,1,Prog,EarlyClosure,314.708642,176.6729532,0
German,120,18,x,Prog_EarlyClosure,x,Did the ice-cream drop down the boyÍs pants?,,,,,,,272,228,271,291,259,302,306,326,278,286,299,496.9737016,331,351,334,496.9737016,334,447,376,370,305,270,,,,,,,,447,350.3333333,270,Aspect,14,,,,,,,In,the,"park,",two,children,were,eating,some,ice-cream.,As,the,boy,was,eating,the,chocolate,ice-cream,dropped,down,his,clean,shirt.,?,?,?,?,?,?,?,1,Prog,EarlyClosure,297.483871,99.74491529,0
German,124,32,x,Prog_EarlyClosure,x,Did the ice-cream drop down the boyÍs pants?,,,,,,,291,653,354,388,947,295,276,437,533,638,285,330,427,445,377,464,558,451,1183,989,349,666,,,,,,,,451,840.3333333,666,Aspect,14,,,,,,,In,the,"park,",two,children,were,eating,some,ice-cream.,As,the,boy,was,eating,the,chocolate,ice-cream,dropped,down,his,clean,shirt.,?,?,?,?,?,?,?,1,Prog,EarlyClosure,516.468254,390.8152723,0
German,132,77,x,Prog_EarlyClosure,x,Did the ice-cream drop down the boyÍs pants?,,,,,,,403,264,345,349,224,218,169,369,235,324,188,181,178,350,293,286,401,384,441,404,388,358,,,,,,,,384,411,358,Aspect,14,,,,,,,In,the,"park,",two,children,were,eating,some,ice-cream.,As,the,boy,was,eating,the,chocolate,ice-cream,dropped,down,his,clean,shirt.,?,?,?,?,?,?,?,1,Prog,EarlyClosure,398.8825065,241.5132218,0
German,101,76,x,Prog_EarlyClosure,x,Did the tree stay steady?,270,254,336.4161418,258,254,336.4161418,336.4161418,323,248,309,266,201,336.4161418,205,203,219,226,299,336.4161418,229,336.4161418,239,251,260,336.4161418,211,231,,,,,,,,,260,273.7080709,231,Aspect,15,In,the,"garden,",a,boy,and,a,girl,wanted,to,go,up,into,the,tree-house.,While,the,girl,was,climbing,the,tall,tree,started,to,shake,dangerously.,,,,,,,,,1,Prog,EarlyClosure,210.793911,62.81111538,0
German,105,44,x,Prog_EarlyClosure,x,Did the tree stay steady?,287,309,317,368,408,421,354,303,356,335,341,345,453,375,459,438,399,340,283,379,335,326,330,404,334,268,620,,,,,,,,,404,301,620,Aspect,15,In,the,"garden,",a,boy,and,a,girl,wanted,to,go,up,into,the,tree-house.,While,the,girl,was,climbing,the,tall,tree,started,to,shake,dangerously.,?,?,?,?,?,?,?,?,1,Prog,EarlyClosure,377.6787565,134.8904772,0
German,109,2,x,Prog_EarlyClosure,x,Did the tree stay steady?,335,240,272,298,306,312,279,352,259,258,356,316,342,277,294,472,294,301,392,381,342,355,339,362,391,303,397,,,,,,,,,362,347,397,Aspect,15,In,the,"garden,",a,boy,and,a,girl,wanted,to,go,up,into,the,tree-house.,While,the,girl,was,climbing,the,tall,tree,started,to,shake,dangerously.,?,?,?,?,?,?,?,?,1,Prog,EarlyClosure,269.1576227,132.4222105,0
German,113,44,x,Prog_EarlyClosure,x,Did the tree stay steady?,982,607,1047.596198,1047.596198,677,599,592,476,609,494,679,622,512,719,691,680,624,568,519,796,618,516,912,594,510,504,630,,,,,,,,,594,507,630,Aspect,15,In,the,"garden,",a,boy,and,a,girl,wanted,to,go,up,into,the,tree-house.,While,the,girl,was,climbing,the,tall,tree,started,to,shake,dangerously.,?,?,?,?,?,?,?,?,1,Prog,EarlyClosure,674.1780822,186.7090582,0
German,117,55,x,Prog_EarlyClosure,x,Did the tree stay steady?,287,228,189,262,213,186,211,226,221,238,226,254,182,250,288,198,232,198,235,205,249,240,235,232,250,223,400,,,,,,,,,232,236.5,400,Aspect,15,In,the,"garden,",a,boy,and,a,girl,wanted,to,go,up,into,the,tree-house.,While,the,girl,was,climbing,the,tall,tree,started,to,shake,dangerously.,?,?,?,?,?,?,?,?,1,Prog,EarlyClosure,319.9164619,117.7795087,0
German,125,72,x,Prog_EarlyClosure,x,Did the tree stay steady?,433,373,634,596,819,701,889,418,294,319,290,352,344,275,567,402,341,303,402,317,331,529,290,395,461,332,501,,,,,,,,,395,396.5,501,Aspect,15,In,the,"garden,",a,boy,and,a,girl,wanted,to,go,up,into,the,tree-house.,While,the,girl,was,climbing,the,tall,tree,started,to,shake,dangerously.,?,?,?,?,?,?,?,?,1,Prog,EarlyClosure,495.1351351,234.7429645,0
German,129,65,x,Prog_EarlyClosure,x,Did the tree stay steady?,407,400,370,474,313,309,368,281,327,346,380,301,373,326,828,360,305,320,323,506,322,373,360,536,366,369,560,,,,,,,,,536,367.5,560,Aspect,15,In,the,"garden,",a,boy,and,a,girl,wanted,to,go,up,into,the,tree-house.,While,the,girl,was,climbing,the,tall,tree,started,to,shake,dangerously.,?,?,?,?,?,?,?,?,1,Prog,EarlyClosure,539.7100737,217.3137757,0
German,106,82,m,Prog_EarlyClosure,m,Did the furniture look expensive?,,,,,,,,459,504,747,520,462,550,488,463,439,478,610,791,493,370,436,525,403,663,470,411,,,,,,,,,403,566.5,411,Aspect,16,,,,,,,,Sarah,and,Jane,owned,a,shop,selling,old,furniture.,When,Sarah,was,polishing,the,cheap,furniture,looked,new,and,expensive.,?,?,?,?,?,?,?,?,1,Prog,EarlyClosure,592.5655527,236.1466124,0
German,114,72,m,Prog_EarlyClosure,m,Did the furniture look expensive?,,,,,,,,138,328,204,200,259,221,283,216,266,281,224,230,195,193,262,300,305,210,236,286,,,,,,,,,305,223,286,Aspect,16,,,,,,,,Sarah,and,Jane,owned,a,shop,selling,old,furniture.,When,Sarah,was,polishing,the,cheap,furniture,looked,new,and,expensive.,?,?,?,?,?,?,?,?,1,Prog,EarlyClosure,244.2675325,90.69660347,0
German,118,79,m,Prog_EarlyClosure,m,Did the furniture look expensive?,,,,,,,,487,479,392,324,415,414,553,302,409,391,351,391,473,472,414,444,444,514,559,492,,,,,,,,,444,536.5,492,Aspect,16,,,,,,,,Sarah,and,Jane,owned,a,shop,selling,old,furniture.,When,Sarah,was,polishing,the,cheap,furniture,looked,new,and,expensive.,?,?,?,?,?,?,?,?,1,Prog,EarlyClosure,434.2536946,101.9628406,0
German,122,9,m,Prog_EarlyClosure,m,Did the furniture look expensive?,,,,,,,,393,377,226,336,259,220,380,285,200,428,330,326,442,310,230,286,370,454,278,531,,,,,,,,,370,366,531,Aspect,16,,,,,,,,Sarah,and,Jane,owned,a,shop,selling,old,furniture.,When,Sarah,was,polishing,the,cheap,furniture,looked,new,and,expensive.,?,?,?,?,?,?,?,?,1,Prog,EarlyClosure,321.2170543,134.4535478,0
German,126,25,m,Prog_EarlyClosure,m,Did the furniture look expensive?,,,,,,,,660,916,369,433,367,430,989,520,1249.818942,705,400,611,596,373,310,438,356,959,342,605,,,,,,,,,356,650.5,605,Aspect,16,,,,,,,,Sarah,and,Jane,owned,a,shop,selling,old,furniture.,When,Sarah,was,polishing,the,cheap,furniture,looked,new,and,expensive.,?,?,?,?,?,?,?,?,1,Prog,EarlyClosure,518.7623188,365.5283114,0
German,103,16,x,Prog_EarlyClosure,x,Did the clothes stay whole?,,,,,,,,439,490,460,436,440,441,441,362,375,420,450,334,376,360,402,362,431,475,438,570,,,,,,,,,431,456.5,570,Aspect,17,,,,,,,,Rita,and,Violet,took,turns,to,do,the,washing.,When,Rita,was,washing,the,delicate,clothes,were,torn,to,pieces.,?,?,?,?,?,?,?,?,1,Prog,EarlyClosure,425.5492611,162.3611989,0
German,111,5,x,Prog_EarlyClosure,x,Did the clothes stay whole?,,,,,,,,405,328,337,475,453,446,329,481,431,541,480,540,537,399,562,349,279,427,382,457,,,,,,,,,279,404.5,457,Aspect,17,,,,,,,,Rita,and,Violet,took,turns,to,do,the,washing.,When,Rita,was,washing,the,delicate,clothes,were,torn,to,pieces.,?,?,?,?,?,?,?,?,1,Prog,EarlyClosure,363.7988338,112.2026374,0
German,115,2,x,Prog_EarlyClosure,x,Did the clothes stay whole?,,,,,,,,1196,446,1365,1442.010084,571,468,520,817,1160,600,571,533,1063,489,797,591,676,1364,530,1442.010084,,,,,,,,,676,947,1442.010084,Aspect,17,,,,,,,,Rita,and,Violet,took,turns,to,do,the,washing.,When,Rita,was,washing,the,delicate,clothes,were,torn,to,pieces.,?,?,?,?,?,?,?,?,1,Prog,EarlyClosure,639.4742268,401.2679284,0
German,119,35,x,Prog_EarlyClosure,x,Did the clothes stay whole?,,,,,,,,775.0571278,291,263,494,288,570,314,467,315,396,295,332,360,363,317,575,775.0571278,343,775.0571278,491,,,,,,,,,775.0571278,559.0285639,491,Aspect,17,,,,,,,,Rita,and,Violet,took,turns,to,do,the,washing.,When,Rita,was,washing,the,delicate,clothes,were,torn,to,pieces.,?,?,?,?,?,?,?,?,1,Prog,EarlyClosure,386.2395833,194.4087722,0
German,127,75,x,Prog_EarlyClosure,x,Did the clothes stay whole?,,,,,,,,305,318,318,413,379,755.5542935,390,325,313,393,313,328,304,477,355,476,395,326,390,350,,,,,,,,,395,358,350,Aspect,17,,,,,,,,Rita,and,Violet,took,turns,to,do,the,washing.,When,Rita,was,washing,the,delicate,clothes,were,torn,to,pieces.,?,?,?,?,?,?,?,?,1,Prog,EarlyClosure,420.6395062,167.4573936,0
German,112,50,m,Prog_EarlyClosure,m,Was the eviction notice canceled?,,,,,,,,,,398,606,649,446,427,410,475,386,608,355,545,405,793,434,635,1252.726788,532,727,,,,,,,,,635,892.363394,727,Aspect,18,,,,,,,,,,The,lawyersÍ,office,was,rather,busy.,As,the,secretary,was,typing,the,eviction,notice,was,canceled,very,suddenly.,?,?,?,?,?,?,?,?,1,Prog,EarlyClosure,595.7395833,328.4936023,0
German,116,24,m,Prog_EarlyClosure,m,Was the eviction notice canceled?,,,,,,,,,,480,137,668.0545484,304,317,351,346,304,367,456,405,432,668.0545484,454,522,659,428,668.0545484,,,,,,,,,522,543.5,668.0545484,Aspect,18,,,,,,,,,,The,lawyersÍ,office,was,rather,busy.,As,the,secretary,was,typing,the,eviction,notice,was,canceled,very,suddenly.,?,?,?,?,?,?,?,?,1,Prog,EarlyClosure,314.708642,176.6729532,0
German,120,2,m,Prog_EarlyClosure,m,Was the eviction notice canceled?,,,,,,,,,,296,376,342,330,338,328,303,309,362,326,319,345,376,345,324,347,350,382,,,,,,,,,324,348.5,382,Aspect,18,,,,,,,,,,The,lawyersÍ,office,was,rather,busy.,As,the,secretary,was,typing,the,eviction,notice,was,canceled,very,suddenly.,?,?,?,?,?,?,?,?,1,Prog,EarlyClosure,297.483871,99.74491529,0
German,124,16,m,Prog_EarlyClosure,m,Was the eviction notice canceled?,,,,,,,,,,310,728,462,392,519,339,431,345,630,401,549,362,526,452,438,1263,671,631,,,,,,,,,438,967,631,Aspect,18,,,,,,,,,,The,lawyersÍ,office,was,rather,busy.,As,the,secretary,was,typing,the,eviction,notice,was,canceled,very,suddenly.,?,?,?,?,?,?,?,?,1,Prog,EarlyClosure,516.468254,390.8152723,0
German,128,8,m,Prog_EarlyClosure,m,Was the eviction notice canceled?,,,,,,,,,,388,557.5749582,416,557.5749582,330,374,345,320,487,330,403,355,402,411,367,380,429,534,,,,,,,,,367,404.5,534,Aspect,18,,,,,,,,,,The,lawyersÍ,office,was,rather,busy.,As,the,secretary,was,typing,the,eviction,notice,was,canceled,very,suddenly.,?,?,?,?,?,?,?,?,1,Prog,EarlyClosure,347.8269795,104.8739893,0
German,132,29,m,Prog_EarlyClosure,m,Was the eviction notice canceled?,,,,,,,,,,310,191,311,259,429,256,382,220,275,247,195,273,199,304,378,544,404,638,,,,,,,,,378,474,638,Aspect,18,,,,,,,,,,The,lawyersÍ,office,was,rather,busy.,As,the,secretary,was,typing,the,eviction,notice,was,canceled,very,suddenly.,?,?,?,?,?,?,?,?,1,Prog,EarlyClosure,398.8825065,241.5132218,0
German,101,80,m,Prog_EarlyClosure,m,Did the model keep still?,,,173,179,192,147,172,96,197,188,202,173,180,167,173,178,175,162,159,196,185,170,172,186,201,179,193,167,167,,,,,,,186,185,167,Aspect,19,,,Yesterday,in,my,art,"class,",the,model,sat,in,the,same,position,for,hours.,As,I,was,drawing,the,patient,woman,tried,very,hard,to,keep,still.,,,,,,,1,Prog,EarlyClosure,210.793911,62.81111538,0
German,105,54,m,Prog_EarlyClosure,m,Did the model keep still?,,,295,279,307,275,341,384,392,326,379,294,306,309,310,347,352,293,250,289,294,311,308,316,647.4597109,365,417,306,359,,,,,,,316,433.8649277,359,Aspect,19,,,Yesterday,in,my,art,"class,",the,model,sat,in,the,same,position,for,hours.,As,I,was,drawing,the,patient,woman,tried,very,hard,to,keep,still.,?,?,?,?,?,?,1,Prog,EarlyClosure,377.6787565,134.8904772,0
German,109,33,m,Prog_EarlyClosure,m,Did the model keep still?,,,338,287,276,296,294,289,235,251,255,263,259,225,252,276,334,270,277,299,285,282,244,340,297,353,323,248,298,,,,,,,340,305.25,298,Aspect,19,,,Yesterday,in,my,art,"class,",the,model,sat,in,the,same,position,for,hours.,As,I,was,drawing,the,patient,woman,tried,very,hard,to,keep,still.,?,?,?,?,?,?,1,Prog,EarlyClosure,269.1576227,132.4222105,0
German,113,60,m,Prog_EarlyClosure,m,Did the model keep still?,,,671,840,693,831,584,542,526,564,483,644,500,447,624,470,554,468,549,631,459,931,703,1017,909,599,495,478,666,,,,,,,1017,620.25,666,Aspect,19,,,Yesterday,in,my,art,"class,",the,model,sat,in,the,same,position,for,hours.,As,I,was,drawing,the,patient,woman,tried,very,hard,to,keep,still.,?,?,?,?,?,?,1,Prog,EarlyClosure,674.1780822,186.7090582,0
German,117,44,m,Prog_EarlyClosure,m,Did the model keep still?,,,275,291,194,455,192,205,222,236,245,254,234,231,204,273,265,218,203,262,209,290,276,313,274,282,279,312,334,,,,,,,313,286.75,334,Aspect,19,,,Yesterday,in,my,art,"class,",the,model,sat,in,the,same,position,for,hours.,As,I,was,drawing,the,patient,woman,tried,very,hard,to,keep,still.,?,?,?,?,?,?,1,Prog,EarlyClosure,319.9164619,117.7795087,0
German,125,36,m,Prog_EarlyClosure,m,Did the model keep still?,,,865,472,313,361,260,392,252,351,319,330,351,365,326,332,358,318,355,334,329,352,360,699,964.6210641,422,964.6210641,494,833,,,,,,,699,711.3105321,833,Aspect,19,,,Yesterday,in,my,art,"class,",the,model,sat,in,the,same,position,for,hours.,As,I,was,drawing,the,patient,woman,tried,very,hard,to,keep,still.,?,?,?,?,?,?,1,Prog,EarlyClosure,495.1351351,234.7429645,0
German,129,46,m,Prog_EarlyClosure,m,Did the model keep still?,,,592,395,367,374,492,441,365,450,387,359,447,420,416,393,974.3376252,395,394,570,358,369,426,974.3376252,782,603,371,409,724,,,,,,,974.3376252,541.25,724,Aspect,19,,,Yesterday,in,my,art,"class,",the,model,sat,in,the,same,position,for,hours.,As,I,was,drawing,the,patient,woman,tried,very,hard,to,keep,still.,?,?,?,?,?,?,1,Prog,EarlyClosure,539.7100737,217.3137757,0
German,106,1,x,Prog_EarlyClosure,x,Did Mrs. Brown park well?,,,,,,,839,710,986,826,830,742,818,884,773,988,1064.858778,810,729,949,1019,996,838,907,1064.858778,1064.858778,616,1064.858778,,,,,,,,907,915.2391851,1064.858778,Aspect,20,,,,,,,The,driving,instructor,almost,gave,up,on,Mrs.,Brown.,When,the,woman,was,parking,the,new,car,was,always,at,an,angle.,?,?,?,?,?,?,?,1,Prog,EarlyClosure,592.5655527,236.1466124,0
German,110,76,x,Prog_EarlyClosure,x,Did Mrs. Brown park well?,,,,,,,340,292,379,257,332,286,325,281,329,282,247,266,219,219,214,261,276,315,865.4860661,303,240,280,,,,,,,,315,469.4953554,280,Aspect,20,,,,,,,The,driving,instructor,almost,gave,up,on,Mrs.,Brown.,When,the,woman,was,parking,the,new,car,was,always,at,an,angle.,?,?,?,?,?,?,?,1,Prog,EarlyClosure,407.8549383,228.8155639,0
German,114,25,x,Prog_EarlyClosure,x,Did Mrs. Brown park well?,,,,,,,282,189,181,172,207,250,238,223,230,212,202,215,228,206,263,257,209,243,239,248,237,425.6607394,,,,,,,,243,241.3333333,425.6607394,Aspect,20,,,,,,,The,driving,instructor,almost,gave,up,on,Mrs.,Brown.,When,the,woman,was,parking,the,new,car,was,always,at,an,angle.,?,?,?,?,?,?,?,1,Prog,EarlyClosure,244.2675325,90.69660347,0
German,118,6,x,Prog_EarlyClosure,x,Did Mrs. Brown park well?,,,,,,,638.1793758,608,638.1793758,551,533,538,502,548,471,630,638.1793758,492,430,477,484,391,398,367,500,413,579,564,,,,,,,,367,497.3333333,564,Aspect,20,,,,,,,The,driving,instructor,almost,gave,up,on,Mrs.,Brown.,When,the,woman,was,parking,the,new,car,was,always,at,an,angle.,?,?,?,?,?,?,?,1,Prog,EarlyClosure,434.2536946,101.9628406,0
German,122,8,x,Prog_EarlyClosure,x,Did Mrs. Brown park well?,,,,,,,590.1241498,269,345,290,517,287,333,414,248,349,455,423,509,386,238,376,302,267,383,321,310,461,,,,,,,,267,338,461,Aspect,20,,,,,,,The,driving,instructor,almost,gave,up,on,Mrs.,Brown.,When,the,woman,was,parking,the,new,car,was,always,at,an,angle.,?,?,?,?,?,?,?,1,Prog,EarlyClosure,321.2170543,134.4535478,0
German,101,57,m,Prog_LateClosure,m,Did Alice and Jim decorate their house every year?,,,,,,,,,258,171,206,182,154,136,213,146,236,210,173,204,180,184,191,197,159,106,235,191,220,,,,,,,178,177.3333333,220,Aspect,2,,,,,,,,,Alice,and,Jim,decorated,their,house,every,year.,When,Alice,was,painting,the,kitchen,walls,they,were,covered,with,many,drops.,,,,,,,1,Prog,LateClosure,210.793911,62.81111538,0
German,105,68,m,Prog_LateClosure,m,Did Alice and Jim decorate their house every year?,,,,,,,,,390,349,336,461,378,364,322,343,340,372,290,336,564,539,456,356,314,316,344,308,331,,,,,,,335,322.6666667,331,Aspect,2,,,,,,,,,Alice,and,Jim,decorated,their,house,every,year.,When,Alice,was,painting,the,kitchen,walls,they,were,covered,with,many,drops.,?,?,?,?,?,?,1,Prog,LateClosure,377.6787565,134.8904772,0
German,109,47,m,Prog_LateClosure,m,Did Alice and Jim decorate their house every year?,,,,,,,,,248,272,229,200,236,262,250,269,208,222,219,250,229,231,276,228,273,210,260,241,272,,,,,,,250.5,237,272,Aspect,2,,,,,,,,,Alice,and,Jim,decorated,their,house,every,year.,When,Alice,was,painting,the,kitchen,walls,they,were,covered,with,many,drops.,?,?,?,?,?,?,1,Prog,LateClosure,269.1576227,132.4222105,0
German,113,41,m,Prog_LateClosure,m,Did Alice and Jim decorate their house every year?,,,,,,,,,612,614,637,815,627,735,593,859,591,558,476,570,555,527,580,548,506,621,431,538,755,,,,,,,527,530,755,Aspect,2,,,,,,,,,Alice,and,Jim,decorated,their,house,every,year.,When,Alice,was,painting,the,kitchen,walls,they,were,covered,with,many,drops.,?,?,?,?,?,?,1,Prog,LateClosure,674.1780822,186.7090582,0
German,117,58,m,Prog_LateClosure,m,Did Alice and Jim decorate their house every year?,,,,,,,,,233,198,257,248,218,240,232,251,245,228,223,229,232,236,218,248,250,234,234,266,306,,,,,,,249,244.6666667,306,Aspect,2,,,,,,,,,Alice,and,Jim,decorated,their,house,every,year.,When,Alice,was,painting,the,kitchen,walls,they,were,covered,with,many,drops.,?,?,?,?,?,?,1,Prog,LateClosure,319.9164619,117.7795087,0
German,125,51,m,Prog_LateClosure,m,Did Alice and Jim decorate their house every year?,,,,,,,,,458,486,409,452,391,431,669,500,856,612,457,399,461,379,494,446,429,566,392,524,399,,,,,,,437.5,494,399,Aspect,2,,,,,,,,,Alice,and,Jim,decorated,their,house,every,year.,When,Alice,was,painting,the,kitchen,walls,they,were,covered,with,many,drops.,?,?,?,?,?,?,1,Prog,LateClosure,495.1351351,234.7429645,0
German,129,62,m,Prog_LateClosure,m,Did Alice and Jim decorate their house every year?,,,,,,,,,432,324,319,731,733,659,601,610,793,319,372,436,327,460,381,391,326,388,350,627,793,,,,,,,358.5,455,793,Aspect,2,,,,,,,,,Alice,and,Jim,decorated,their,house,every,year.,When,Alice,was,painting,the,kitchen,walls,they,were,covered,with,many,drops.,?,?,?,?,?,?,1,Prog,LateClosure,539.7100737,217.3137757,0
German,106,9,x,Prog_LateClosure,x,Did Tony hate to sing at parties?,,,,,,,,536,474,375,517,456,449,642,590,731,582,566,585,630,671,1064.858778,787,712,669,535,648,,,,,,,,,690.5,535,648,Aspect,3,,,,,,,,Tony,and,his,friends,loved,to,sing,at,parties.,When,Tony,was,singing,the,drinking,song,it,sounded,like,opera.,?,?,?,?,?,,,,1,Prog,LateClosure,592.5655527,236.1466124,0
German,110,27,x,Prog_LateClosure,x,Did Tony hate to sing at parties?,,,,,,,,340,293,272,346,372,328,277,750,342,865.4860661,329,315,391,297,319,791,266,278,865.4860661,279,,,,,,,,,272,865.4860661,279,Aspect,3,,,,,,,,Tony,and,his,friends,loved,to,sing,at,parties.,When,Tony,was,singing,the,drinking,song,it,sounded,like,opera.,?,?,?,?,?,,,,1,Prog,LateClosure,407.8549383,228.8155639,0
German,114,30,x,Prog_LateClosure,x,Did Tony hate to sing at parties?,,,,,,,,192,156,192,139,171,164,164,195,204,159,215,276,219,218,196,203,304,305,289,195,,,,,,,,,304.5,289,195,Aspect,3,,,,,,,,Tony,and,his,friends,loved,to,sing,at,parties.,When,Tony,was,singing,the,drinking,song,it,sounded,like,opera.,?,?,?,?,?,,,,1,Prog,LateClosure,244.2675325,90.69660347,0
German,118,63,x,Prog_LateClosure,x,Did Tony hate to sing at parties?,,,,,,,,518,397,467,402,433,469,528,328,488,440,389,354,356,361,393,422,638.1793758,516,383,499,,,,,,,,,577.0896879,383,499,Aspect,3,,,,,,,,Tony,and,his,friends,loved,to,sing,at,parties.,When,Tony,was,singing,the,drinking,song,it,sounded,like,opera.,?,?,?,?,?,,,,1,Prog,LateClosure,434.2536946,101.9628406,0
German,122,74,x,Prog_LateClosure,x,Did Tony hate to sing at parties?,,,,,,,,161,179,266,177,226,242,231,208,203,198,207,263,286,200,189,256,225,297,252,227,,,,,,,,,261,252,227,Aspect,3,,,,,,,,Tony,and,his,friends,loved,to,sing,at,parties.,When,Tony,was,singing,the,drinking,song,it,sounded,like,opera.,?,?,?,?,?,,,,1,Prog,LateClosure,321.2170543,134.4535478,0
German,126,41,x,Prog_LateClosure,x,Did Tony hate to sing at parties?,,,,,,,,315,289,279,356,280,296,329,290,284,340,286,289,301,442,283,306,300,413,289,298,,,,,,,,,356.5,289,298,Aspect,3,,,,,,,,Tony,and,his,friends,loved,to,sing,at,parties.,When,Tony,was,singing,the,drinking,song,it,sounded,like,opera.,?,?,?,?,?,,,,1,Prog,LateClosure,518.7623188,365.5283114,0
German,103,13,m,Prog_LateClosure,m,Did John and Sam take their guns into the woods?,,,,,,,425,324,358,334,334,375,402,436,408,412,637,393,405,505,499,750.2716589,434,750.2716589,508,750.2716589,677,471,750.2716589,,,,,,,629.1358294,632.7572196,750.2716589,Aspect,4,,,,,,,John,and,Sam,took,their,guns,out,into,the,woods.,As,John,was,hunting,the,frightened,rabbit,it,escaped,through,the,dark,trees.,?,?,?,,,,1,Prog,LateClosure,425.5492611,162.3611989,0
German,111,51,m,Prog_LateClosure,m,Did John and Sam take their guns into the woods?,,,,,,,325,245,347,286,294,285,314,312,272,293,476,309,268,393,324,278,420,419,246,358,369,481,281,,,,,,,332.5,402.6666667,281,Aspect,4,,,,,,,John,and,Sam,took,their,guns,out,into,the,woods.,As,John,was,hunting,the,frightened,rabbit,it,escaped,through,the,dark,trees.,?,?,?,,,,1,Prog,LateClosure,363.7988338,112.2026374,0
German,115,4,m,Prog_LateClosure,m,Did John and Sam take their guns into the woods?,,,,,,,500,439,771,648,352,367,494,803,395,1442.010084,465,913,587,1442.010084,506,810,786,803,675,622,587,642,983,,,,,,,739,617,983,Aspect,4,,,,,,,John,and,Sam,took,their,guns,out,into,the,woods.,As,John,was,hunting,the,frightened,rabbit,it,escaped,through,the,dark,trees.,?,?,?,,,,1,Prog,LateClosure,639.4742268,401.2679284,0
German,119,75,m,Prog_LateClosure,m,Did John and Sam take their guns into the woods?,,,,,,,345,322,321,321,325,309,370,257,314,384,330,338,292,314,303,347,546,326,339,299,336,320,316,,,,,,,332.5,318.3333333,316,Aspect,4,,,,,,,John,and,Sam,took,their,guns,out,into,the,woods.,As,John,was,hunting,the,frightened,rabbit,it,escaped,through,the,dark,trees.,?,?,?,,,,1,Prog,LateClosure,386.2395833,194.4087722,0
German,127,20,m,Prog_LateClosure,m,Did John and Sam take their guns into the woods?,,,,,,,409,442,372,355,367,412,333,386,339,395,389,427,362,365,377,457,556,400,516,636,476,460,448,,,,,,,458,524,448,Aspect,4,,,,,,,John,and,Sam,took,their,guns,out,into,the,woods.,As,John,was,hunting,the,frightened,rabbit,it,escaped,through,the,dark,trees.,?,?,?,,,,1,Prog,LateClosure,420.6395062,167.4573936,0
German,112,28,x,Prog_LateClosure,x,Did Susan and her children live near her parents?,,,,,,,,693,506,519,650,520,467,359,684,959,809,486,430,523,451,607,609,635,511,390,524,500,506,,,,,,,573,471.3333333,506,Aspect,5,,,,,,,,Susan,and,her,children,lived,far,from,her,parents.,When,Susan,was,visiting,the,friendly,neighbors,they,wanted,to,have,a,party.,?,?,?,?,?,?,1,Prog,LateClosure,595.7395833,328.4936023,0
German,116,28,x,Prog_LateClosure,x,Did Susan and her children live near her parents?,,,,,,,,576,190,212,196,668.0545484,310,516,182,234,375,211,159,302,264,223,325,284,435,224,265,218,215,,,,,,,359.5,235.6666667,215,Aspect,5,,,,,,,,Susan,and,her,children,lived,far,from,her,parents.,When,Susan,was,visiting,the,friendly,neighbors,they,wanted,to,have,a,party.,?,?,?,?,?,?,1,Prog,LateClosure,314.708642,176.6729532,0
German,124,22,x,Prog_LateClosure,x,Did Susan and her children live near her parents?,,,,,,,,254,380,371,499,543,575,431,597,822,320,307,369,509,401,382,797,390,375,384,385,371,649,,,,,,,382.5,380,649,Aspect,5,,,,,,,,Susan,and,her,children,lived,far,from,her,parents.,When,Susan,was,visiting,the,friendly,neighbors,they,wanted,to,have,a,party.,?,?,?,?,?,?,1,Prog,LateClosure,516.468254,390.8152723,0
German,128,15,x,Prog_LateClosure,x,Did Susan and her children live near her parents?,,,,,,,,324,557.5749582,557.5749582,319,349,327,301,292,261,320,269,292,314,244,557.5749582,262,314,263,262,350,321,367,,,,,,,288.5,311,367,Aspect,5,,,,,,,,Susan,and,her,children,lived,far,from,her,parents.,When,Susan,was,visiting,the,friendly,neighbors,they,wanted,to,have,a,party.,?,?,?,?,?,?,1,Prog,LateClosure,347.8269795,104.8739893,0
German,101,75,x,Prog_LateClosure,x,Was the flat tidy?,,,,,,,,,186,152,150,179,179,166,166,169,160,195,179,188,186,204,225,223,239,183,190,227,,,,,,,,231,186.5,227,Aspect,6,,,,,,,,,The,flat,was,very,old,and,dirty.,Even,when,Joe,was,cleaning,the,small,kitchen,it,smelled,like,old,rubbish.,?,?,?,?,,,,1,Prog,LateClosure,210.793911,62.81111538,0
German,105,62,x,Prog_LateClosure,x,Was the flat tidy?,,,,,,,,,293,268,318,377,328,328,374,314,336,419,324,351,351,367,361,363,351,328,360,364,,,,,,,,357,344,364,Aspect,6,,,,,,,,,The,flat,was,very,old,and,dirty.,Even,when,Joe,was,cleaning,the,small,kitchen,it,smelled,like,old,rubbish.,?,?,?,?,,,,1,Prog,LateClosure,377.6787565,134.8904772,0
German,109,78,x,Prog_LateClosure,x,Was the flat tidy?,,,,,,,,,258,240,255,249,237,218,186,197,222,227,234,206,255,197,238,232,245,234,244,206,,,,,,,,238.5,239,206,Aspect,6,,,,,,,,,The,flat,was,very,old,and,dirty.,Even,when,Joe,was,cleaning,the,small,kitchen,it,smelled,like,old,rubbish.,?,?,?,?,,,,1,Prog,LateClosure,269.1576227,132.4222105,0
German,117,51,x,Prog_LateClosure,x,Was the flat tidy?,,,,,,,,,215,238,303,228,274,217,425,247,272,240,278,318,266,313,248,306,398,357,245,474,,,,,,,,352,301,474,Aspect,6,,,,,,,,,The,flat,was,very,old,and,dirty.,Even,when,Joe,was,cleaning,the,small,kitchen,it,smelled,like,old,rubbish.,?,?,?,?,,,,1,Prog,LateClosure,319.9164619,117.7795087,0
German,125,10,x,Prog_LateClosure,x,Was the flat tidy?,,,,,,,,,367,427,386,490,367,266,363,442,351,345,383,324,442,386,388,426,421,354,345,411,,,,,,,,423.5,349.5,411,Aspect,6,,,,,,,,,The,flat,was,very,old,and,dirty.,Even,when,Joe,was,cleaning,the,small,kitchen,it,smelled,like,old,rubbish.,?,?,?,?,,,,1,Prog,LateClosure,495.1351351,234.7429645,0
German,129,56,x,Prog_LateClosure,x,Was the flat tidy?,,,,,,,,,320,352,351,336,378,385,368,627,410,433,563,545,346,351,384,403,455,427,431,925,,,,,,,,429,429,925,Aspect,6,,,,,,,,,The,flat,was,very,old,and,dirty.,Even,when,Joe,was,cleaning,the,small,kitchen,it,smelled,like,old,rubbish.,?,?,?,?,,,,1,Prog,LateClosure,539.7100737,217.3137757,0
German,106,53,m,Prog_LateClosure,m,Did the couple want to leave?,,,,435,340,316,395,416,540,506,438,467,456,553,502,594,394,519,564,563,410,585,539,589,530,499,525,493,,,,,,,,559.5,512,493,Aspect,7,,,,The,couple,sitting,next,to,me,at,the,restaurant,got,up,to,leave.,As,I,was,watching,the,drunk,man,he,tripped,over,my,chair.,?,?,?,?,?,?,?,1,Prog,LateClosure,592.5655527,236.1466124,0
German,110,44,m,Prog_LateClosure,m,Did the couple want to leave?,,,,413,317,368,312,421,539,571,200,522,206,288,212,207,578,277,193,374,196,294,291,282,204,344,432,497,,,,,,,,243,388,497,Aspect,7,,,,The,couple,sitting,next,to,me,at,the,restaurant,got,up,to,leave.,As,I,was,watching,the,drunk,man,he,tripped,over,my,chair.,?,?,?,?,?,?,?,1,Prog,LateClosure,407.8549383,228.8155639,0
German,114,75,m,Prog_LateClosure,m,Did the couple want to leave?,,,,233,214,145,372,195,251,214,333,214,242,208,283,222,406,275,201,243,164,170,272,58,202,197,362,196,,,,,,,,130,279.5,196,Aspect,7,,,,The,couple,sitting,next,to,me,at,the,restaurant,got,up,to,leave.,As,I,was,watching,the,drunk,man,he,tripped,over,my,chair.,?,?,?,?,?,?,?,1,Prog,LateClosure,244.2675325,90.69660347,0
German,118,40,m,Prog_LateClosure,m,Did the couple want to leave?,,,,405,428,479,549,478,394,543,398,502,571,403,453,557,472,473,396,341,351,349,398,336,399,405,410,638.1793758,,,,,,,,367.5,407.5,638.1793758,Aspect,7,,,,The,couple,sitting,next,to,me,at,the,restaurant,got,up,to,leave.,As,I,was,watching,the,drunk,man,he,tripped,over,my,chair.,?,?,?,?,?,?,?,1,Prog,LateClosure,434.2536946,101.9628406,0
German,122,80,m,Prog_LateClosure,m,Did the couple want to leave?,,,,285,145,296,160,228,371,230,196,184,294,258,220,232,396,143,150,358,372,244,220,289,197,299,222,356,,,,,,,,243,260.5,356,Aspect,7,,,,The,couple,sitting,next,to,me,at,the,restaurant,got,up,to,leave.,As,I,was,watching,the,drunk,man,he,tripped,over,my,chair.,?,?,?,?,?,?,?,1,Prog,LateClosure,321.2170543,134.4535478,0
German,126,2,m,Prog_LateClosure,m,Did the couple want to leave?,,,,1249.818942,469,1002,608,491,657,666,505,962,644,702,606,657,610,721,598,640,600,670,802,1249.818942,663,636,839,553,,,,,,,,956.4094708,737.5,553,Aspect,7,,,,The,couple,sitting,next,to,me,at,the,restaurant,got,up,to,leave.,As,I,was,watching,the,drunk,man,he,tripped,over,my,chair.,?,?,?,?,?,?,?,1,Prog,LateClosure,518.7623188,365.5283114,0
German,103,52,x,Prog_LateClosure,x,Were there three Italian chefs working at the restaurant?,,,,,,,,355,292,346,350,356,355,281,308,399,357,356,483,315,291,387,325,364,278,355,382,381,559,,,,,,,321,372.6666667,559,Aspect,8,,,,,,,,There,were,two,Italian,chefs,working,in,the,restaurant.,Because,Mario,was,cooking,the,fresh,pasta,it,was,made,to,real,perfection.,?,?,?,,,,1,Prog,LateClosure,425.5492611,162.3611989,0
German,115,69,x,Prog_LateClosure,x,Were there three Italian chefs working at the restaurant?,,,,,,,,512,449,383,570,462,645,361,346,725,560,330,486,430,494,413,551,854,370,379,566,784,1379,,,,,,,612,576.3333333,1379,Aspect,8,,,,,,,,There,were,two,Italian,chefs,working,in,the,restaurant.,Because,Mario,was,cooking,the,fresh,pasta,it,was,made,to,real,perfection.,?,?,?,,,,1,Prog,LateClosure,639.4742268,401.2679284,0
German,119,26,x,Prog_LateClosure,x,Were there three Italian chefs working at the restaurant?,,,,,,,,393,282,268,311,279,320,282,293,365,50,775.0571278,358,328,351,279,316,336,549,268,275,288,472,,,,,,,442.5,277,472,Aspect,8,,,,,,,,There,were,two,Italian,chefs,working,in,the,restaurant.,Because,Mario,was,cooking,the,fresh,pasta,it,was,made,to,real,perfection.,?,?,?,,,,1,Prog,LateClosure,386.2395833,194.4087722,0
German,112,79,m,Prog_LateClosure,m,Were there different kinds of vehicles at the company?,,,,,,,460,390,395,417,423,339,577,347,436,485,558,446,453,413,390,544,429,453,455,449,412,447,509,,,,,,,454,436,509,Aspect,9,,,,,,,There,were,many,different,kinds,of,vehicles,at,the,company.,When,George,was,driving,the,big,lorry,it,made,loud,and,strange,noises.,?,?,?,,,,1,Prog,LateClosure,595.7395833,328.4936023,0
German,116,10,m,Prog_LateClosure,m,Were there different kinds of vehicles at the company?,,,,,,,557,153,668.0545484,425,251,214,414,291,247,470,333,233,221,250,316,226,290,341,274,232,239,280,267,,,,,,,307.5,250.3333333,267,Aspect,9,,,,,,,There,were,many,different,kinds,of,vehicles,at,the,company.,When,George,was,driving,the,big,lorry,it,made,loud,and,strange,noises.,?,?,?,,,,1,Prog,LateClosure,314.708642,176.6729532,0
German,124,56,m,Prog_LateClosure,m,Were there different kinds of vehicles at the company?,,,,,,,215,373,411,498,262,428,365,503,455,791,538,198,371,266,330,266,401,481,394,353,343,368,281,,,,,,,437.5,354.6666667,281,Aspect,9,,,,,,,There,were,many,different,kinds,of,vehicles,at,the,company.,When,George,was,driving,the,big,lorry,it,made,loud,and,strange,noises.,?,?,?,,,,1,Prog,LateClosure,516.468254,390.8152723,0
German,132,54,m,Prog_LateClosure,m,Were there different kinds of vehicles at the company?,,,,,,,313,222,193,252,394,211,238,295,285,297,349,219,236,330,311,287,226,309,299,323,375,589,436,,,,,,,304,429,436,Aspect,9,,,,,,,There,were,many,different,kinds,of,vehicles,at,the,company.,When,George,was,driving,the,big,lorry,it,made,loud,and,strange,noises.,?,?,?,,,,1,Prog,LateClosure,398.8825065,241.5132218,0
German,101,23,m,Prog_LateClosure,m,Did the opera company have three different conductors?,,,,,,,,,233,225,210,215,230,224,281,294,211,198,211,210,212,198,240,214,256,248,288,176,336.4161418,,,,,,,235,237.3333333,336.4161418,Aspect,10,,,,,,,,,The,opera,company,had,three,different,conductors.,When,Mr.,Osaka,was,conducting,the,symphony,orchestra,it,played,better,than,anyone,else.,?,?,,,,,1,Prog,LateClosure,210.793911,62.81111538,0
German,105,46,m,Prog_LateClosure,m,Did the opera company have three different conductors?,,,,,,,,,307,328,376,331,283,332,342,382,483,287,361,321,347,495,368,400,301,353,308,293,297,,,,,,,350.5,318,297,Aspect,10,,,,,,,,,The,opera,company,had,three,different,conductors.,When,Mr.,Osaka,was,conducting,the,symphony,orchestra,it,played,better,than,anyone,else.,?,?,?,,,,1,Prog,LateClosure,377.6787565,134.8904772,0
German,109,48,m,Prog_LateClosure,m,Did the opera company have three different conductors?,,,,,,,,,212,168,205,219,185,201,195,215,217,233,211,296,225,246,197,201,310,196,318,221,293,,,,,,,255.5,245,293,Aspect,10,,,,,,,,,The,opera,company,had,three,different,conductors.,When,Mr.,Osaka,was,conducting,the,symphony,orchestra,it,played,better,than,anyone,else.,?,?,?,,,,1,Prog,LateClosure,269.1576227,132.4222105,0
German,113,56,m,Prog_LateClosure,m,Did the opera company have three different conductors?,,,,,,,,,449,702,562,828,1047.596198,574,1038,408,782,712,435,494,491,542,550,1025,752,584,594,477,409,,,,,,,888.5,551.6666667,409,Aspect,10,,,,,,,,,The,opera,company,had,three,different,conductors.,When,Mr.,Osaka,was,conducting,the,symphony,orchestra,it,played,better,than,anyone,else.,?,?,?,,,,1,Prog,LateClosure,674.1780822,186.7090582,0
German,117,23,m,Prog_LateClosure,m,Did the opera company have three different conductors?,,,,,,,,,338,318,362,328,296,399,376,377,409,362,336,382,303,361,490,555.4754794,460,405,388,340,359,,,,,,,507.7377397,377.6666667,359,Aspect,10,,,,,,,,,The,opera,company,had,three,different,conductors.,When,Mr.,Osaka,was,conducting,the,symphony,orchestra,it,played,better,than,anyone,else.,?,?,?,,,,1,Prog,LateClosure,319.9164619,117.7795087,0
German,125,4,m,Prog_LateClosure,m,Did the opera company have three different conductors?,,,,,,,,,370,892,446,474,964.6210641,529,964.6210641,526,596,840,521,964.6210641,539,569,807,506,453,463,409,833,836,,,,,,,479.5,568.3333333,836,Aspect,10,,,,,,,,,The,opera,company,had,three,different,conductors.,When,Mr.,Osaka,was,conducting,the,symphony,orchestra,it,played,better,than,anyone,else.,?,?,?,,,,1,Prog,LateClosure,495.1351351,234.7429645,0
German,129,3,m,Prog_LateClosure,m,Did the opera company have three different conductors?,,,,,,,,,651,803,661,734,683,683,974.3376252,974.3376252,888,715,768,700,704,667,689,563,720,631,642,702,949,,,,,,,641.5,658.3333333,949,Aspect,10,,,,,,,,,The,opera,company,had,three,different,conductors.,When,Mr.,Osaka,was,conducting,the,symphony,orchestra,it,played,better,than,anyone,else.,?,?,?,,,,1,Prog,LateClosure,539.7100737,217.3137757,0
German,106,49,m,Prog_LateClosure,m,Was the town safe?,,,,,,,485,437,623,533,592,539,921,494,402,579,586,511,585,512,438,424,497,492,528,576,491,647,,,,,,,,510,533.5,647,Aspect,11,,,,,,,On,Saturday,"nights,",the,police,department,was,very,busy.,When,the,sheriff,was,patrolling,the,whole,town,it,was,safe,and,secure.,?,?,?,?,,,,1,Prog,LateClosure,592.5655527,236.1466124,0
German,110,65,m,Prog_LateClosure,m,Was the town safe?,,,,,,,362,255,358,405,372,243,416,191,564,707,269,589,175,495,696,375,207,515,318,332,289,338,,,,,,,,416.5,310.5,338,Aspect,11,,,,,,,On,Saturday,"nights,",the,police,department,was,very,busy.,When,the,sheriff,was,patrolling,the,whole,town,it,was,safe,and,secure.,?,?,?,?,,,,1,Prog,LateClosure,407.8549383,228.8155639,0
German,114,22,m,Prog_LateClosure,m,Was the town safe?,,,,,,,319,200,156,205,205,199,188,218,212,206,184,208,233,205,192,267,207,289,202,255,307,258,,,,,,,,245.5,281,258,Aspect,11,,,,,,,On,Saturday,"nights,",the,police,department,was,very,busy.,When,the,sheriff,was,patrolling,the,whole,town,it,was,safe,and,secure.,?,?,?,?,,,,1,Prog,LateClosure,244.2675325,90.69660347,0
German,118,39,m,Prog_LateClosure,m,Was the town safe?,,,,,,,358,465,396,408,355,356,416,469,362,387,341,355,382,395,392,373,360,317,362,424,537,638.1793758,,,,,,,,339.5,480.5,638.1793758,Aspect,11,,,,,,,On,Saturday,"nights,",the,police,department,was,very,busy.,When,the,sheriff,was,patrolling,the,whole,town,it,was,safe,and,secure.,?,?,?,?,,,,1,Prog,LateClosure,434.2536946,101.9628406,0
German,122,1,m,Prog_LateClosure,m,Was the town safe?,,,,,,,454,470,340,303,428,350,335,221,547,485,450,536,307,357,311,286,327,340,461,313,342,590.1241498,,,,,,,,400.5,327.5,590.1241498,Aspect,11,,,,,,,On,Saturday,"nights,",the,police,department,was,very,busy.,When,the,sheriff,was,patrolling,the,whole,town,it,was,safe,and,secure.,?,?,?,?,,,,1,Prog,LateClosure,321.2170543,134.4535478,0
German,126,17,m,Prog_LateClosure,m,Was the town safe?,,,,,,,375,424,442,493,755,578,604,422,573,938,452,583,431,766,393,359,521,374,434,496,472,539,,,,,,,,404,484,539,Aspect,11,,,,,,,On,Saturday,"nights,",the,police,department,was,very,busy.,When,the,sheriff,was,patrolling,the,whole,town,it,was,safe,and,secure.,?,?,?,?,,,,1,Prog,LateClosure,518.7623188,365.5283114,0
German,103,3,m,Prog_LateClosure,m,Did the horse jump a fence?,,,,,,,,,732,474,388,338,448,435,507,457,477,405,415,463,411,483,512,550,750.2716589,747,406,502,686,526,,,,,,650.1358294,585.25,526,Aspect,12,,,,,,,,,Jenny,and,Sam,went,out,for,a,ride.,While,Jenny,was,riding,the,young,horse,it,decided,to,jump,a,high,fence.,?,?,,,,1,Prog,LateClosure,425.5492611,162.3611989,0
German,111,39,m,Prog_LateClosure,m,Did the horse jump a fence?,,,,,,,,,504,253,382,346,297,363,509,355,349,380,253,302,307,302,305,588.2041086,478,308,588.2041086,307,505,297,,,,,,533.1020543,427.0510271,297,Aspect,12,,,,,,,,,Jenny,and,Sam,went,out,for,a,ride.,While,Jenny,was,riding,the,young,horse,it,decided,to,jump,a,high,fence.,?,?,,,,1,Prog,LateClosure,363.7988338,112.2026374,0
German,115,60,m,Prog_LateClosure,m,Did the horse jump a fence?,,,,,,,,,461,333,381,442,370,439,692,1010,468,395,370,418,404,653,676,823,442,411,476,445,483,823,,,,,,632.5,453.75,823,Aspect,12,,,,,,,,,Jenny,and,Sam,went,out,for,a,ride.,While,Jenny,was,riding,the,young,horse,it,decided,to,jump,a,high,fence.,?,?,,,,1,Prog,LateClosure,639.4742268,401.2679284,0
German,119,23,m,Prog_LateClosure,m,Did the horse jump a fence?,,,,,,,,,389,276,244,503,285,304,238,304,545,294,278,262,275,775.0571278,351,411,561,340,342,421,363,316,,,,,,486,366.5,316,Aspect,12,,,,,,,,,Jenny,and,Sam,went,out,for,a,ride.,While,Jenny,was,riding,the,young,horse,it,decided,to,jump,a,high,fence.,?,?,,,,1,Prog,LateClosure,386.2395833,194.4087722,0
German,127,65,m,Prog_LateClosure,m,Did the horse jump a fence?,,,,,,,,,312,339,336,338,377,334,349,352,408,369,380,341,353,355,345,377,677,755.5542935,361,299,287,342,,,,,,527,425.6385734,342,Aspect,12,,,,,,,,,Jenny,and,Sam,went,out,for,a,ride.,While,Jenny,was,riding,the,young,horse,it,decided,to,jump,a,high,fence.,?,?,,,,1,Prog,LateClosure,420.6395062,167.4573936,0
German,112,4,x,Prog_LateClosure,x,Were the workers lazy?,,,,,,,533,504,517,559,443,522,886,612,468,890,676,476,438,594,403,500,631,1252.726788,398,576,833,,,,,,,,,825.363394,576,833,Aspect,13,,,,,,,Maggie,and,Fred,were,the,two,supervisors,at,the,factory.,When,Maggie,was,supervising,the,night,staff,they,worked,extremely,efficiently.,?,?,?,?,?,?,?,?,1,Prog,LateClosure,595.7395833,328.4936023,0
German,116,7,x,Prog_LateClosure,x,Were the workers lazy?,,,,,,,412,245,593,222,303,437,237,481,523,453,355,407,332,522,668.0545484,383,359,351,326,295,349,,,,,,,,,338.5,295,349,Aspect,13,,,,,,,Maggie,and,Fred,were,the,two,supervisors,at,the,factory.,When,Maggie,was,supervising,the,night,staff,they,worked,extremely,efficiently.,?,?,?,?,?,?,?,?,1,Prog,LateClosure,314.708642,176.6729532,0
German,124,78,x,Prog_LateClosure,x,Were the workers lazy?,,,,,,,742,318,604,359,356,363,502,761,343,223,825,334,421,312,385,272,330,354,344,376,488,,,,,,,,,349,376,488,Aspect,13,,,,,,,Maggie,and,Fred,were,the,two,supervisors,at,the,factory.,When,Maggie,was,supervising,the,night,staff,they,worked,extremely,efficiently.,?,?,?,?,?,?,?,?,1,Prog,LateClosure,516.468254,390.8152723,0
German,128,12,x,Prog_LateClosure,x,Were the workers lazy?,,,,,,,388,322,434,361,360,310,330,392,557.5749582,318,387,307,314,389,326,337,358,341,489,399,362,,,,,,,,,415,399,362,Aspect,13,,,,,,,Maggie,and,Fred,were,the,two,supervisors,at,the,factory.,When,Maggie,was,supervising,the,night,staff,they,worked,extremely,efficiently.,?,?,?,?,?,?,?,?,1,Prog,LateClosure,347.8269795,104.8739893,0
German,132,19,x,Prog_LateClosure,x,Were the workers lazy?,,,,,,,655,332,374,376,356,356,580,560,491,881.9089502,402,237,374,226,348,208,309,446,412,489,628,,,,,,,,,429,489,628,Aspect,13,,,,,,,Maggie,and,Fred,were,the,two,supervisors,at,the,factory.,When,Maggie,was,supervising,the,night,staff,they,worked,extremely,efficiently.,?,?,?,?,?,?,?,?,1,Prog,LateClosure,398.8825065,241.5132218,0
German,101,24,x,Prog_LateClosure,x,Did the ice-cream drop down the boyÍs pants?,,,,,,,336.4161418,202,336.4161418,192,141,336.4161418,239,336.4161418,146,266,244,211,178,182,293,194,208,215,197,178,190,203,240,,,,,,,206,190.3333333,240,Aspect,14,,,,,,,In,the,"park,",two,children,were,eating,some,ice-cream.,As,the,boy,was,eating,the,chocolate,ice-cream,it,dropped,down,his,clean,shirt.,,,,,,,1,Prog,LateClosure,210.793911,62.81111538,0
German,105,51,x,Prog_LateClosure,x,Did the ice-cream drop down the boyÍs pants?,,,,,,,328,328,350,360,289,326,306,317,313,317,308,291,310,328,323,310,314,324,301,404,316,279,338,,,,,,,312.5,333,338,Aspect,14,,,,,,,In,the,"park,",two,children,were,eating,some,ice-cream.,As,the,boy,was,eating,the,chocolate,ice-cream,it,dropped,down,his,clean,shirt.,?,?,?,,,,1,Prog,LateClosure,377.6787565,134.8904772,0
German,109,28,x,Prog_LateClosure,x,Did the ice-cream drop down the boyÍs pants?,,,,,,,253,263,186,327,234,310,283,261,286,315,311,286,267,273,235,289,284,316,260,296,294,273,297,,,,,,,288,287.6666667,297,Aspect,14,,,,,,,In,the,"park,",two,children,were,eating,some,ice-cream.,As,the,boy,was,eating,the,chocolate,ice-cream,it,dropped,down,his,clean,shirt.,?,?,?,,,,1,Prog,LateClosure,269.1576227,132.4222105,0
German,113,27,x,Prog_LateClosure,x,Did the ice-cream drop down the boyÍs pants?,,,,,,,798,729,893,667,605,683,713,637,731,784,686,702,595,1047.596198,641,665,773,768,643,698,559,574,575,,,,,,,705.5,610.3333333,575,Aspect,14,,,,,,,In,the,"park,",two,children,were,eating,some,ice-cream.,As,the,boy,was,eating,the,chocolate,ice-cream,it,dropped,down,his,clean,shirt.,?,?,?,,,,1,Prog,LateClosure,674.1780822,186.7090582,0
German,117,35,x,Prog_LateClosure,x,Did the ice-cream drop down the boyÍs pants?,,,,,,,277,261,287,261,300,244,284,275,530,328,272,261,254,287,293,293,269,316,310,289,283,455,323,,,,,,,313,342.3333333,323,Aspect,14,,,,,,,In,the,"park,",two,children,were,eating,some,ice-cream.,As,the,boy,was,eating,the,chocolate,ice-cream,it,dropped,down,his,clean,shirt.,?,?,?,,,,1,Prog,LateClosure,319.9164619,117.7795087,0
German,125,79,x,Prog_LateClosure,x,Did the ice-cream drop down the boyÍs pants?,,,,,,,402,396,362,352,369,365,333,361,398,443,346,358,382,392,352,453,503,546,439,369,421,438,370,,,,,,,492.5,409.3333333,370,Aspect,14,,,,,,,In,the,"park,",two,children,were,eating,some,ice-cream.,As,the,boy,was,eating,the,chocolate,ice-cream,it,dropped,down,his,clean,shirt.,?,?,?,,,,1,Prog,LateClosure,495.1351351,234.7429645,0
German,129,34,x,Prog_LateClosure,x,Did the ice-cream drop down the boyÍs pants?,,,,,,,384,396,405,609,349,350,703,518,371,893,540,446,507,685,467,721,582,491,446,391,423,399,573,,,,,,,468.5,404.3333333,573,Aspect,14,,,,,,,In,the,"park,",two,children,were,eating,some,ice-cream.,As,the,boy,was,eating,the,chocolate,ice-cream,it,dropped,down,his,clean,shirt.,?,?,?,,,,1,Prog,LateClosure,539.7100737,217.3137757,0
German,106,78,x,Prog_LateClosure,x,Did the tree stay steady?,976,455,553,553,596,479,457,493,465,605,542,427,538,469,639,556,428,533,441,422,348,366,415,452,363,371,344,460,,,,,,,,407.5,357.5,460,Aspect,15,In,the,"garden,",a,boy,and,a,girl,wanted,to,go,up,into,the,tree-house.,While,the,girl,was,climbing,the,tall,tree,it,started,to,shake,dangerously.,?,?,?,?,?,?,?,1,Prog,LateClosure,592.5655527,236.1466124,0
German,110,58,x,Prog_LateClosure,x,Did the tree stay steady?,274,292,470,318,209,298,299,290,336,551,244,276,259,509,865.4860661,332,234,215,338,455,289,530,198,301,315,292,294,283,,,,,,,,308,293,283,Aspect,15,In,the,"garden,",a,boy,and,a,girl,wanted,to,go,up,into,the,tree-house.,While,the,girl,was,climbing,the,tall,tree,it,started,to,shake,dangerously.,?,?,?,?,?,?,?,1,Prog,LateClosure,407.8549383,228.8155639,0
German,114,12,x,Prog_LateClosure,x,Did the tree stay steady?,274,187,215,242,266,242,245,243,299,197,260,213,235,280,249,391,200,256,255,263,259,272,225,196,278,311,266,317,,,,,,,,237,288.5,317,Aspect,15,In,the,"garden,",a,boy,and,a,girl,wanted,to,go,up,into,the,tree-house.,While,the,girl,was,climbing,the,tall,tree,it,started,to,shake,dangerously.,?,?,?,?,?,?,?,1,Prog,LateClosure,244.2675325,90.69660347,0
German,118,14,x,Prog_LateClosure,x,Did the tree stay steady?,401,404,427,447,638.1793758,545,456,558,422,411,481,491,387,388,638.1793758,428,411,390,368,344,351,290,437,409,344,393,381,513,,,,,,,,376.5,387,513,Aspect,15,In,the,"garden,",a,boy,and,a,girl,wanted,to,go,up,into,the,tree-house.,While,the,girl,was,climbing,the,tall,tree,it,started,to,shake,dangerously.,?,?,?,?,?,?,?,1,Prog,LateClosure,434.2536946,101.9628406,0
German,122,29,x,Prog_LateClosure,x,Did the tree stay steady?,310,231,225,392,507,200,225,236,311,246,190,254,331,249,188,528,206,186,196,187,273,218,289,344,413,256,176,590.1241498,,,,,,,,378.5,216,590.1241498,Aspect,15,In,the,"garden,",a,boy,and,a,girl,wanted,to,go,up,into,the,tree-house.,While,the,girl,was,climbing,the,tall,tree,it,started,to,shake,dangerously.,?,?,?,?,?,?,?,1,Prog,LateClosure,321.2170543,134.4535478,0
German,126,12,x,Prog_LateClosure,x,Did the tree stay steady?,350,477,623,416,342,299,564,327,348,374,598,310,375,327,570,491,321,411,368,526,301,258,585,404,405,395,385,351,,,,,,,,404.5,390,351,Aspect,15,In,the,"garden,",a,boy,and,a,girl,wanted,to,go,up,into,the,tree-house.,While,the,girl,was,climbing,the,tall,tree,it,started,to,shake,dangerously.,?,?,?,?,?,?,?,1,Prog,LateClosure,518.7623188,365.5283114,0
German,103,84,m,Prog_LateClosure,m,Did the furniture look expensive?,,,,,,,,252,215,253,301,230,234,210,672,234,363,262,251,234,270,283,246,407,223,326,295,264,,,,,,,,315,310.5,264,Aspect,16,,,,,,,,Sarah,and,Jane,owned,a,shop,selling,old,furniture.,When,Sarah,was,polishing,the,cheap,furniture,it,looked,new,and,expensive.,?,?,?,?,,,,1,Prog,LateClosure,425.5492611,162.3611989,0
German,111,34,m,Prog_LateClosure,m,Did the furniture look expensive?,,,,,,,,300,311,428,306,420,295,402,588.2041086,463,415,375,254,300,422,323,309,452,229,357,343,257,,,,,,,,340.5,350,257,Aspect,16,,,,,,,,Sarah,and,Jane,owned,a,shop,selling,old,furniture.,When,Sarah,was,polishing,the,cheap,furniture,it,looked,new,and,expensive.,?,?,?,?,,,,1,Prog,LateClosure,363.7988338,112.2026374,0
German,115,14,m,Prog_LateClosure,m,Did the furniture look expensive?,,,,,,,,734,318,320,493,456,661,1351,412,1442.010084,295,492,394,938,463,329,525,655,431,647,601,1442.010084,,,,,,,,543,624,1442.010084,Aspect,16,,,,,,,,Sarah,and,Jane,owned,a,shop,selling,old,furniture.,When,Sarah,was,polishing,the,cheap,furniture,it,looked,new,and,expensive.,?,?,?,?,,,,1,Prog,LateClosure,639.4742268,401.2679284,0
German,119,72,m,Prog_LateClosure,m,Did the furniture look expensive?,,,,,,,,337,239,250,541,430,268,324,328,341,775.0571278,413,262,267,392,320,369,306,422,268,347,330,,,,,,,,364,307.5,330,Aspect,16,,,,,,,,Sarah,and,Jane,owned,a,shop,selling,old,furniture.,When,Sarah,was,polishing,the,cheap,furniture,it,looked,new,and,expensive.,?,?,?,?,,,,1,Prog,LateClosure,386.2395833,194.4087722,0
German,127,62,m,Prog_LateClosure,m,Did the furniture look expensive?,,,,,,,,323,360,337,369,417,370,293,377,466,438,363,642,365,592,344,414,404,357,369,394,418,,,,,,,,380.5,381.5,418,Aspect,16,,,,,,,,Sarah,and,Jane,owned,a,shop,selling,old,furniture.,When,Sarah,was,polishing,the,cheap,furniture,it,looked,new,and,expensive.,?,?,?,?,,,,1,Prog,LateClosure,420.6395062,167.4573936,0
German,112,61,x,Prog_LateClosure,x,Did the clothes stay whole?,,,,,,,,902,480,425,494,371,465,465,398,632,450,426,390,464,449,613,468,446,577,479,388,599,,,,,,,,511.5,433.5,599,Aspect,17,,,,,,,,Rita,and,Violet,took,turns,to,do,the,washing.,When,Rita,was,washing,the,delicate,clothes,they,were,torn,to,pieces.,?,?,?,?,?,?,?,1,Prog,LateClosure,595.7395833,328.4936023,0
German,116,21,x,Prog_LateClosure,x,Did the clothes stay whole?,,,,,,,,221,186,424,202,278,668.0545484,376,320,288,410,392,362,399,283,300,668.0545484,500,284,313,293,396,,,,,,,,392,303,396,Aspect,17,,,,,,,,Rita,and,Violet,took,turns,to,do,the,washing.,When,Rita,was,washing,the,delicate,clothes,they,were,torn,to,pieces.,?,?,?,?,?,?,?,1,Prog,LateClosure,314.708642,176.6729532,0
German,120,24,x,Prog_LateClosure,x,Did the clothes stay whole?,,,,,,,,255,209,261,242,430,264,285,344,496.9737016,351,432,406,398,368,403,411,401,329,301,313,340,,,,,,,,365,307,340,Aspect,17,,,,,,,,Rita,and,Violet,took,turns,to,do,the,washing.,When,Rita,was,washing,the,delicate,clothes,they,were,torn,to,pieces.,?,?,?,?,?,?,?,1,Prog,LateClosure,297.483871,99.74491529,0
German,124,15,x,Prog_LateClosure,x,Did the clothes stay whole?,,,,,,,,633,464,664,442,372,477,687,513,873,410,620,614,560,1298.098798,570,356,475,361,406,473,664,,,,,,,,418,439.5,664,Aspect,17,,,,,,,,Rita,and,Violet,took,turns,to,do,the,washing.,When,Rita,was,washing,the,delicate,clothes,they,were,torn,to,pieces.,?,?,?,?,?,?,?,1,Prog,LateClosure,516.468254,390.8152723,0
German,128,34,x,Prog_LateClosure,x,Did the clothes stay whole?,,,,,,,,510,249,295,353,302,329,292,300,310,352,256,294,294,302,328,330,330,384,295,399,557.5749582,,,,,,,,357,347,557.5749582,Aspect,17,,,,,,,,Rita,and,Violet,took,turns,to,do,the,washing.,When,Rita,was,washing,the,delicate,clothes,they,were,torn,to,pieces.,?,?,?,?,?,?,?,1,Prog,LateClosure,347.8269795,104.8739893,0
German,132,73,x,Prog_LateClosure,x,Did the clothes stay whole?,,,,,,,,513,350,204,356,274,386,236,466,191,370,179,381,201,361,384,280,419,98,422,479,606,,,,,,,,258.5,450.5,606,Aspect,17,,,,,,,,Rita,and,Violet,took,turns,to,do,the,washing.,When,Rita,was,washing,the,delicate,clothes,they,were,torn,to,pieces.,?,?,?,?,?,?,?,1,Prog,LateClosure,398.8825065,241.5132218,0
German,101,14,m,Prog_LateClosure,m,Was the eviction notice canceled?,,,,,,,,,,266,219,336.4161418,194,229,224,277,224,191,174,197,187,182,202,269,321,251,205,228,,,,,,,,295,228,228,Aspect,18,,,,,,,,,,The,lawyersÍ,office,was,rather,busy.,As,the,secretary,was,typing,the,eviction,notice,it,was,canceled,very,suddenly.,,,,,,,,1,Prog,LateClosure,210.793911,62.81111538,0
German,105,69,m,Prog_LateClosure,m,Was the eviction notice canceled?,,,,,,,,,,422,397,367,332,378,440,435,389,332,369,298,334,418,647.4597109,647.4597109,384,488,390,414,,,,,,,,515.7298555,439,414,Aspect,18,,,,,,,,,,The,lawyersÍ,office,was,rather,busy.,As,the,secretary,was,typing,the,eviction,notice,it,was,canceled,very,suddenly.,?,?,?,?,,,,1,Prog,LateClosure,377.6787565,134.8904772,0
German,109,10,m,Prog_LateClosure,m,Was the eviction notice canceled?,,,,,,,,,,255,400,330,260,289,242,273,254,273,263,280,292,267,296,333,296,262,266,323,,,,,,,,314.5,264,323,Aspect,18,,,,,,,,,,The,lawyersÍ,office,was,rather,busy.,As,the,secretary,was,typing,the,eviction,notice,it,was,canceled,very,suddenly.,?,?,?,?,,,,1,Prog,LateClosure,269.1576227,132.4222105,0
German,113,73,m,Prog_LateClosure,m,Was the eviction notice canceled?,,,,,,,,,,738,902,984,851,1047.596198,681,741,476,576,621,428,448,567,621,512,579,532,427,506,,,,,,,,545.5,479.5,506,Aspect,18,,,,,,,,,,The,lawyersÍ,office,was,rather,busy.,As,the,secretary,was,typing,the,eviction,notice,it,was,canceled,very,suddenly.,?,?,?,?,,,,1,Prog,LateClosure,674.1780822,186.7090582,0
German,117,43,m,Prog_LateClosure,m,Was the eviction notice canceled?,,,,,,,,,,300,248,555.4754794,247,256,245,264,268,230,235,270,337,285,250,312,287,291,277,309,,,,,,,,299.5,284,309,Aspect,18,,,,,,,,,,The,lawyersÍ,office,was,rather,busy.,As,the,secretary,was,typing,the,eviction,notice,it,was,canceled,very,suddenly.,?,?,?,?,,,,1,Prog,LateClosure,319.9164619,117.7795087,0
German,125,11,m,Prog_LateClosure,m,Was the eviction notice canceled?,,,,,,,,,,864,797,408,388,321,860,876,501,964.6210641,590,533,435,470,570,964.6210641,588,563,517,692,,,,,,,,776.3105321,540,692,Aspect,18,,,,,,,,,,The,lawyersÍ,office,was,rather,busy.,As,the,secretary,was,typing,the,eviction,notice,it,was,canceled,very,suddenly.,?,?,?,?,,,,1,Prog,LateClosure,495.1351351,234.7429645,0
German,129,82,m,Prog_LateClosure,m,Was the eviction notice canceled?,,,,,,,,,,600,356,558,383,555,405,458,344,366,377,576,410,676,404,432,415,401,519,855,,,,,,,,423.5,460,855,Aspect,18,,,,,,,,,,The,lawyersÍ,office,was,rather,busy.,As,the,secretary,was,typing,the,eviction,notice,it,was,canceled,very,suddenly.,?,?,?,?,,,,1,Prog,LateClosure,539.7100737,217.3137757,0
German,106,39,m,Prog_LateClosure,m,Did the model keep still?,,,512,572,549,512,439,686,599,640,553,516,489,502,571,411,531,452,487,472,636,527,445,487,660,423,414,446,437,589,,,,,,573.5,430,589,Aspect,19,,,Yesterday,in,my,art,"class,",the,model,sat,in,the,same,position,for,hours.,As,I,was,drawing,the,patient,woman,she,tried,very,hard,to,keep,still.,?,?,?,?,?,1,Prog,LateClosure,592.5655527,236.1466124,0
German,110,77,m,Prog_LateClosure,m,Did the model keep still?,,,664,337,173,304,218,314,292,202,324,245,383,211,377,179,501,274,486,663,471,244,279,227,327,783,235,463,253,700,,,,,,277,433.5,700,Aspect,19,,,Yesterday,in,my,art,"class,",the,model,sat,in,the,same,position,for,hours.,As,I,was,drawing,the,patient,woman,she,tried,very,hard,to,keep,still.,?,?,?,?,?,1,Prog,LateClosure,407.8549383,228.8155639,0
German,114,33,m,Prog_LateClosure,m,Did the model keep still?,,,201,158,152,84,192,160,188,133,141,247,188,168,191,200,287,194,191,272,108,185,214,207,356,214,222,274,242,236,,,,,,281.5,238,236,Aspect,19,,,Yesterday,in,my,art,"class,",the,model,sat,in,the,same,position,for,hours.,As,I,was,drawing,the,patient,woman,she,tried,very,hard,to,keep,still.,?,?,?,?,?,1,Prog,LateClosure,244.2675325,90.69660347,0
German,118,43,m,Prog_LateClosure,m,Did the model keep still?,,,555,380,364,299,351,301,261,361,442,298,373,638.1793758,348,329,374,389,340,268,414,367,373,354,335,405,315,443,385,548,,,,,,344.5,387,548,Aspect,19,,,Yesterday,in,my,art,"class,",the,model,sat,in,the,same,position,for,hours.,As,I,was,drawing,the,patient,woman,she,tried,very,hard,to,keep,still.,?,?,?,?,?,1,Prog,LateClosure,434.2536946,101.9628406,0
German,122,10,m,Prog_LateClosure,m,Did the model keep still?,,,362,297,311,172,255,257,251,232,291,253,310,429,292,220,395,351,184,203,281,354,382,344,590.1241498,270,279,276,332,299,,,,,,467.0620749,289.25,299,Aspect,19,,,Yesterday,in,my,art,"class,",the,model,sat,in,the,same,position,for,hours.,As,I,was,drawing,the,patient,woman,she,tried,very,hard,to,keep,still.,?,?,?,?,?,1,Prog,LateClosure,321.2170543,134.4535478,0
German,126,75,m,Prog_LateClosure,m,Did the model keep still?,,,467,372,353,822,376,362,397,396,378,333,405,454,382,322,473,327,347,316,321,340,1121,430,585,354,472,410,435,605,,,,,,507.5,417.75,605,Aspect,19,,,Yesterday,in,my,art,"class,",the,model,sat,in,the,same,position,for,hours.,As,I,was,drawing,the,patient,woman,she,tried,very,hard,to,keep,still.,?,?,?,?,?,1,Prog,LateClosure,518.7623188,365.5283114,0
German,103,63,x,Prog_LateClosure,x,Did Mrs. Brown park well?,,,,,,,10,750.2716589,651,368,335,358,320,324,363,370,451,388,388,436,359,415,372,383,524,299,565,256,460,,,,,,,453.5,373.3333333,460,Aspect,20,,,,,,,The,driving,instructor,almost,gave,up,on,Mrs.,Brown.,When,the,woman,was,parking,the,new,car,it,was,always,at,an,angle.,?,?,?,,,,1,Prog,LateClosure,425.5492611,162.3611989,0
German,111,80,x,Prog_LateClosure,x,Did Mrs. Brown park well?,,,,,,,382,260,470,331,276,275,254,380,376,202,302,368,474,306,333,367,332,420,354,289,316,293,500,,,,,,,387,299.3333333,500,Aspect,20,,,,,,,The,driving,instructor,almost,gave,up,on,Mrs.,Brown.,When,the,woman,was,parking,the,new,car,it,was,always,at,an,angle.,?,?,?,,,,1,Prog,LateClosure,363.7988338,112.2026374,0
German,115,42,x,Prog_LateClosure,x,Did Mrs. Brown park well?,,,,,,,505,545,467,467,442,416,396,371,385,596,340,402,414,345,436,383,386,446,426,395,377,411,1442.010084,,,,,,,436,394.3333333,1442.010084,Aspect,20,,,,,,,The,driving,instructor,almost,gave,up,on,Mrs.,Brown.,When,the,woman,was,parking,the,new,car,it,was,always,at,an,angle.,?,?,?,,,,1,Prog,LateClosure,639.4742268,401.2679284,0
German,119,33,x,Prog_LateClosure,x,Did Mrs. Brown park well?,,,,,,,319,248,517,308,252,268,249,263,349,311,317,376,271,496,362,775.0571278,321,340,533,359,275,354,659,,,,,,,436.5,329.3333333,659,Aspect,20,,,,,,,The,driving,instructor,almost,gave,up,on,Mrs.,Brown.,When,the,woman,was,parking,the,new,car,it,was,always,at,an,angle.,?,?,?,,,,1,Prog,LateClosure,386.2395833,194.4087722,0
German,127,83,x,Prog_LateClosure,x,Did Mrs. Brown park well?,,,,,,,314,404,377,755.5542935,369,317,325,431,361,424,344,361,348,417,252,444,326,421,424,335,386,303,418,,,,,,,422.5,341.3333333,418,Aspect,20,,,,,,,The,driving,instructor,almost,gave,up,on,Mrs.,Brown.,When,the,woman,was,parking,the,new,car,it,was,always,at,an,angle.,?,?,?,,,,1,Prog,LateClosure,420.6395062,167.4573936,0
German,101,70,x,Simple_EarlyClosure,x,Was the bar full?,,,,,,,,,243,158,163,125,160,203,196,181,182,328,293,214,222,182,185,218,210,190,178,203,,,,,,,,218,192.6666667,203,Aspect,1,,,,,,,,,It,was,late,and,the,bar,was,full.,As,the,men,drank,the,strong,beer,was,spilled,on,the,floor.,,,,,,,,1,Simple,EarlyClosure,210.793911,62.81111538,0
German,106,83,m,Simple_EarlyClosure,m,Did Alice and Jim decorate their house every year?,,,,,,,,,,732,658,510,700,682,1064.858778,987,677,1064.858778,1064.858778,549,607,462,634,477,1064.858778,537,475,400,,,,,,,,477,692.2862592,400,Aspect,2,,,,,,,,,,Alice,and,Jim,decorated,their,house,every,year.,When,Alice,painted,the,kitchen,walls,were,covered,with,many,drops.,?,?,?,?,?,?,?,1,Simple,EarlyClosure,592.5655527,236.1466124,0
German,110,40,m,Simple_EarlyClosure,m,Did Alice and Jim decorate their house every year?,,,,,,,,,,438,325,272,493,277,404,714,327,865.4860661,865.4860661,447,319,322,865.4860661,292,332,865.4860661,364,865.4860661,,,,,,,,292,520.4953554,865.4860661,Aspect,2,,,,,,,,,,Alice,and,Jim,decorated,their,house,every,year.,When,Alice,painted,the,kitchen,walls,were,covered,with,many,drops.,?,?,?,?,?,?,?,1,Simple,EarlyClosure,407.8549383,228.8155639,0
German,114,19,m,Simple_EarlyClosure,m,Did Alice and Jim decorate their house every year?,,,,,,,,,,220,211,183,146,196,246,217,269,332,213,229,279,221,206,212,181,406,225,329,,,,,,,,212,270.6666667,329,Aspect,2,,,,,,,,,,Alice,and,Jim,decorated,their,house,every,year.,When,Alice,painted,the,kitchen,walls,were,covered,with,many,drops.,?,?,?,?,?,?,?,1,Simple,EarlyClosure,244.2675325,90.69660347,0
German,118,28,m,Simple_EarlyClosure,m,Did Alice and Jim decorate their house every year?,,,,,,,,,,436,434,430,570,422,470,445,385,463,549,408,449,363,402,354,356,505,366,552,,,,,,,,354,409,552,Aspect,2,,,,,,,,,,Alice,and,Jim,decorated,their,house,every,year.,When,Alice,painted,the,kitchen,walls,were,covered,with,many,drops.,?,?,?,?,?,?,?,1,Simple,EarlyClosure,434.2536946,101.9628406,0
German,122,79,m,Simple_EarlyClosure,m,Did Alice and Jim decorate their house every year?,,,,,,,,,,279,221,176,162,273,272,203,212,423,188,316,193,216,206,273,295,216,224,236,,,,,,,,273,245,236,Aspect,2,,,,,,,,,,Alice,and,Jim,decorated,their,house,every,year.,When,Alice,painted,the,kitchen,walls,were,covered,with,many,drops.,?,?,?,?,?,?,?,1,Simple,EarlyClosure,321.2170543,134.4535478,0
German,126,43,m,Simple_EarlyClosure,m,Did Alice and Jim decorate their house every year?,,,,,,,,,,409,381,314,414,610,336,281,759,439,302,357,303,371,301,362,411,403,396,872,,,,,,,,362,403.3333333,872,Aspect,2,,,,,,,,,,Alice,and,Jim,decorated,their,house,every,year.,When,Alice,painted,the,kitchen,walls,were,covered,with,many,drops.,?,?,?,?,?,?,?,1,Simple,EarlyClosure,518.7623188,365.5283114,0
German,103,30,x,Simple_EarlyClosure,x,Did Tony hate to sing at parties?,,,,,,,,,400,305,306,321,361,750.2716589,298,357,372,357,330,395,393,434,614,471,482,750.2716589,,,,,,,,,,471,482,750.2716589,Aspect,3,,,,,,,,,Tony,and,his,friends,loved,to,sing,at,parties.,When,Tony,sang,the,drinking,song,sounded,like,opera.,?,?,?,?,?,?,?,?,?,1,Simple,EarlyClosure,425.5492611,162.3611989,0
German,111,70,x,Simple_EarlyClosure,x,Did Tony hate to sing at parties?,,,,,,,,,270,399,313,440,301,387,266,550,300,447,354,291,335,303,502,588.2041086,334,440,,,,,,,,,,588.2041086,334,440,Aspect,3,,,,,,,,,Tony,and,his,friends,loved,to,sing,at,parties.,When,Tony,sang,the,drinking,song,sounded,like,opera.,?,?,?,?,?,?,?,?,?,1,Simple,EarlyClosure,363.7988338,112.2026374,0
German,115,41,x,Simple_EarlyClosure,x,Did Tony hate to sing at parties?,,,,,,,,,1442.010084,403,324,546,360,450,399,555,644,639,243,352,451,628,726,1442.010084,431,1442.010084,,,,,,,,,,1442.010084,431,1442.010084,Aspect,3,,,,,,,,,Tony,and,his,friends,loved,to,sing,at,parties.,When,Tony,sang,the,drinking,song,sounded,like,opera.,?,?,?,?,?,?,?,?,?,1,Simple,EarlyClosure,639.4742268,401.2679284,0
German,119,27,x,Simple_EarlyClosure,x,Did Tony hate to sing at parties?,,,,,,,,,343,274,384,295,354,234,231,232,332,455,216,329,288,290,366,310,775.0571278,363,,,,,,,,,,310,775.0571278,363,Aspect,3,,,,,,,,,Tony,and,his,friends,loved,to,sing,at,parties.,When,Tony,sang,the,drinking,song,sounded,like,opera.,?,?,?,?,?,?,?,?,?,1,Simple,EarlyClosure,386.2395833,194.4087722,0
German,127,41,x,Simple_EarlyClosure,x,Did Tony hate to sing at parties?,,,,,,,,,379,337,402,299,379,367,483,359,330,410,385,351,379,361,374,392,490,509,,,,,,,,,,392,490,509,Aspect,3,,,,,,,,,Tony,and,his,friends,loved,to,sing,at,parties.,When,Tony,sang,the,drinking,song,sounded,like,opera.,?,?,?,?,?,?,?,?,?,1,Simple,EarlyClosure,420.6395062,167.4573936,0
German,112,33,m,Simple_EarlyClosure,m,Did John and Sam take their guns into the woods?,,,,,,,,394,393,437,522,471,651,580,640,500,881,648,464,568,504,678,560,1086,574,453,603,757,,,,,,,,1086,543.3333333,757,Aspect,4,,,,,,,,John,and,Sam,took,their,guns,out,into,the,woods.,As,John,hunted,the,frightened,rabbit,escaped,through,the,dark,trees.,?,?,?,?,?,?,?,1,Simple,EarlyClosure,595.7395833,328.4936023,0
German,116,16,m,Simple_EarlyClosure,m,Did John and Sam take their guns into the woods?,,,,,,,,366,245,180,229,346,252,240,267,246,272,377,250,196,328,261,479,384,377,337,337,280,,,,,,,,384,350.3333333,280,Aspect,4,,,,,,,,John,and,Sam,took,their,guns,out,into,the,woods.,As,John,hunted,the,frightened,rabbit,escaped,through,the,dark,trees.,?,?,?,?,?,?,?,1,Simple,EarlyClosure,314.708642,176.6729532,0
German,120,77,m,Simple_EarlyClosure,m,Did John and Sam take their guns into the woods?,,,,,,,,222,214,190,211,204,196,213,180,215,188,225,189,226,190,220,225,201,170,220,216,222,,,,,,,,201,202,222,Aspect,4,,,,,,,,John,and,Sam,took,their,guns,out,into,the,woods.,As,John,hunted,the,frightened,rabbit,escaped,through,the,dark,trees.,?,?,?,?,?,?,?,1,Simple,EarlyClosure,297.483871,99.74491529,0
German,124,17,m,Simple_EarlyClosure,m,Did John and Sam take their guns into the woods?,,,,,,,,731,676,627,994,527,386,289,422,414,984,547,549,429,383,529,374,1298.098798,1298.098798,344,351,716,,,,,,,,1298.098798,664.3662662,716,Aspect,4,,,,,,,,John,and,Sam,took,their,guns,out,into,the,woods.,As,John,hunted,the,frightened,rabbit,escaped,through,the,dark,trees.,?,?,?,?,?,?,?,1,Simple,EarlyClosure,516.468254,390.8152723,0
German,128,37,m,Simple_EarlyClosure,m,Did John and Sam take their guns into the woods?,,,,,,,,290,557,305,275,342,320,318,269,322,390,321,384,284,373,385,379,409,363,413,415,247,,,,,,,,409,397,247,Aspect,4,,,,,,,,John,and,Sam,took,their,guns,out,into,the,woods.,As,John,hunted,the,frightened,rabbit,escaped,through,the,dark,trees.,?,?,?,?,?,?,?,1,Simple,EarlyClosure,347.8269795,104.8739893,0
German,132,17,m,Simple_EarlyClosure,m,Did John and Sam take their guns into the woods?,,,,,,,,881.9089502,336,395,394,330,360,412,329,315,312,370,213,238,326,196,363,242,302,437,240,469,,,,,,,,242,326.3333333,469,Aspect,4,,,,,,,,John,and,Sam,took,their,guns,out,into,the,woods.,As,John,hunted,the,frightened,rabbit,escaped,through,the,dark,trees.,?,?,?,?,?,?,?,1,Simple,EarlyClosure,398.8825065,241.5132218,0
German,101,10,x,Simple_EarlyClosure,x,Did Susan and her children live near her parents?,,,,,,,,,236,259,175,218,336.4161418,224,205,245,233,336.4161418,166,187,150,180,178,336.4161418,191,217,243,219,,,,,,,,336.4161418,217,219,Aspect,5,,,,,,,,,Susan,and,her,children,lived,far,from,her,parents.,When,Susan,visited,the,friendly,neighbors,wanted,to,have,a,party.,,,,,,,,1,Simple,EarlyClosure,210.793911,62.81111538,0
German,105,55,x,Simple_EarlyClosure,x,Did Susan and her children live near her parents?,,,,,,,,,274,363,308,310,316,368,323,377,338,387,358,433,335,314,437,395,350,371,327,353,,,,,,,,395,349.3333333,353,Aspect,5,,,,,,,,,Susan,and,her,children,lived,far,from,her,parents.,When,Susan,visited,the,friendly,neighbors,wanted,to,have,a,party.,?,?,?,?,?,?,?,1,Simple,EarlyClosure,377.6787565,134.8904772,0
German,113,28,x,Simple_EarlyClosure,x,Did Susan and her children live near her parents?,,,,,,,,,782,648,714,861,692,706,1047.596198,655,922,789,686,888,700,715,650,742,652,625,646,898,,,,,,,,742,641,898,Aspect,5,,,,,,,,,Susan,and,her,children,lived,far,from,her,parents.,When,Susan,visited,the,friendly,neighbors,wanted,to,have,a,party.,?,?,?,?,?,?,?,1,Simple,EarlyClosure,674.1780822,186.7090582,0
German,117,22,x,Simple_EarlyClosure,x,Did Susan and her children live near her parents?,,,,,,,,,342,273,323,303,302,316,315,293,335,301,313,307,316,325,295,360,546,406,366,354,,,,,,,,360,439.3333333,354,Aspect,5,,,,,,,,,Susan,and,her,children,lived,far,from,her,parents.,When,Susan,visited,the,friendly,neighbors,wanted,to,have,a,party.,?,?,?,?,?,?,?,1,Simple,EarlyClosure,319.9164619,117.7795087,0
German,125,71,x,Simple_EarlyClosure,x,Did Susan and her children live near her parents?,,,,,,,,,376,327,346,327,364,353,345,584,697,931,372,420,392,356,539,535,933,440,368,332,,,,,,,,535,580.3333333,332,Aspect,5,,,,,,,,,Susan,and,her,children,lived,far,from,her,parents.,When,Susan,visited,the,friendly,neighbors,wanted,to,have,a,party.,?,?,?,?,?,?,?,1,Simple,EarlyClosure,495.1351351,234.7429645,0
German,129,2,x,Simple_EarlyClosure,x,Did Susan and her children live near her parents?,,,,,,,,,974.3376252,487,637,887,755,754,813,697,974.3376252,974.3376252,963,719,699,718,752,974.3376252,907,729,821,747,,,,,,,,974.3376252,819,747,Aspect,5,,,,,,,,,Susan,and,her,children,lived,far,from,her,parents.,When,Susan,visited,the,friendly,neighbors,wanted,to,have,a,party.,?,?,?,?,?,?,?,1,Simple,EarlyClosure,539.7100737,217.3137757,0
German,106,13,x,Simple_EarlyClosure,x,Was the flat tidy?,,,,,,,,,,413,1064.858778,704,679,1064.858778,509,672,729,692,726,679,589,760,713,881,863,641,623,,,,,,,,,881,752,623,Aspect,6,,,,,,,,,,The,flat,was,very,old,and,dirty.,Even,when,Joe,cleaned,the,small,kitchen,smelled,like,old,rubbish.,?,?,?,?,?,?,?,?,1,Simple,EarlyClosure,592.5655527,236.1466124,0
German,110,39,x,Simple_EarlyClosure,x,Was the flat tidy?,,,,,,,,,,330,299,296,287,387,329,314,505,270,222,723,265,211,521,288,401,327,210,,,,,,,,,288,364,210,Aspect,6,,,,,,,,,,The,flat,was,very,old,and,dirty.,Even,when,Joe,cleaned,the,small,kitchen,smelled,like,old,rubbish.,?,?,?,?,?,?,?,?,1,Simple,EarlyClosure,407.8549383,228.8155639,0
German,114,54,x,Simple_EarlyClosure,x,Was the flat tidy?,,,,,,,,,,216,191,241,216,209,233,191,286,217,205,206,221,192,163,313,253,201,291,,,,,,,,,313,227,291,Aspect,6,,,,,,,,,,The,flat,was,very,old,and,dirty.,Even,when,Joe,cleaned,the,small,kitchen,smelled,like,old,rubbish.,?,?,?,?,?,?,?,?,1,Simple,EarlyClosure,244.2675325,90.69660347,0
German,118,47,x,Simple_EarlyClosure,x,Was the flat tidy?,,,,,,,,,,455,288,325,511,368,374,400,458,311,534,457,411,439,479,499,478,536,496,,,,,,,,,499,507,496,Aspect,6,,,,,,,,,,The,flat,was,very,old,and,dirty.,Even,when,Joe,cleaned,the,small,kitchen,smelled,like,old,rubbish.,?,?,?,?,?,?,?,?,1,Simple,EarlyClosure,434.2536946,101.9628406,0
German,122,30,x,Simple_EarlyClosure,x,Was the flat tidy?,,,,,,,,,,590.1241498,298,430,268,207,227,576,470,299,188,340,236,200,332,232,286,495,502,,,,,,,,,232,390.5,502,Aspect,6,,,,,,,,,,The,flat,was,very,old,and,dirty.,Even,when,Joe,cleaned,the,small,kitchen,smelled,like,old,rubbish.,?,?,?,?,?,?,?,?,1,Simple,EarlyClosure,321.2170543,134.4535478,0
German,103,71,m,Simple_EarlyClosure,m,Did the couple want to leave?,,,,,263,196,263,239,251,224,219,296,232,255,278,231,196,124,678,368,216,252,279,318,339,233,319,,,,,,,,,318,286,319,Aspect,7,,,,,The,couple,sitting,next,to,me,at,the,restaurant,got,up,to,leave.,As,I,watched,the,drunk,man,tripped,over,my,chair.,?,?,?,?,?,?,?,?,1,Simple,EarlyClosure,425.5492611,162.3611989,0
German,111,36,m,Simple_EarlyClosure,m,Did the couple want to leave?,,,,,333,467,335,410,545,306,214,227,502,259,408,289,358,363,274,402,307,303,382,416,369,360,302,,,,,,,,,416,364.5,302,Aspect,7,,,,,The,couple,sitting,next,to,me,at,the,restaurant,got,up,to,leave.,As,I,watched,the,drunk,man,tripped,over,my,chair.,?,?,?,?,?,?,?,?,1,Simple,EarlyClosure,363.7988338,112.2026374,0
German,115,76,m,Simple_EarlyClosure,m,Did the couple want to leave?,,,,,329,595,446,383,369,482,463,431,572,541,372,446,1048,498,475,420,476,706,539,521,1442.010084,447,754,,,,,,,,,521,944.5050418,754,Aspect,7,,,,,The,couple,sitting,next,to,me,at,the,restaurant,got,up,to,leave.,As,I,watched,the,drunk,man,tripped,over,my,chair.,?,?,?,?,?,?,?,?,1,Simple,EarlyClosure,639.4742268,401.2679284,0
German,119,25,m,Simple_EarlyClosure,m,Did the couple want to leave?,,,,,532,341,297,547,373,323,367,347,490,322,355,640,375,316,294,295,337,286,315,305,322,333,379,,,,,,,,,305,327.5,379,Aspect,7,,,,,The,couple,sitting,next,to,me,at,the,restaurant,got,up,to,leave.,As,I,watched,the,drunk,man,tripped,over,my,chair.,?,?,?,?,?,?,?,?,1,Simple,EarlyClosure,386.2395833,194.4087722,0
German,127,25,m,Simple_EarlyClosure,m,Did the couple want to leave?,,,,,531,485,385,474,374,348,352,401,397,374,373,395,411,498,391,443,409,459,542,418,468,441,415,,,,,,,,,418,454.5,415,Aspect,7,,,,,The,couple,sitting,next,to,me,at,the,restaurant,got,up,to,leave.,As,I,watched,the,drunk,man,tripped,over,my,chair.,?,?,?,?,?,?,?,?,1,Simple,EarlyClosure,420.6395062,167.4573936,0
German,112,1,x,Simple_EarlyClosure,x,Were there three Italian chefs working at the restaurant?,,,,,,,,,594,463,387,536,448,473,410,371,1133,1252.726788,1252.726788,512,965,590,502,514,1252.726788,489,1047,1003,,,,,,,,514,929.575596,1003,Aspect,8,,,,,,,,,There,were,two,Italian,chefs,working,in,the,restaurant.,Because,Mario,cooked,the,fresh,pasta,was,made,to,real,perfection.,?,?,?,?,?,?,?,1,Simple,EarlyClosure,595.7395833,328.4936023,0
German,116,49,x,Simple_EarlyClosure,x,Were there three Italian chefs working at the restaurant?,,,,,,,,,161,152,258,132,218,206,429,156,136,146,668.0545484,121,129,142,350,165,174,194,227,668.0545484,,,,,,,,165,198.3333333,668.0545484,Aspect,8,,,,,,,,,There,were,two,Italian,chefs,working,in,the,restaurant.,Because,Mario,cooked,the,fresh,pasta,was,made,to,real,perfection.,?,?,?,?,?,?,?,1,Simple,EarlyClosure,314.708642,176.6729532,0
