Group,Participant,Trial,Response,Condition,Correct,q1,S1.RT,S2.RT,S3.RT,S4.RT,S5.RT,S6.RT,S7.RT,S8.RT,S9.RT,S10.RT,S11.RT,S12.RT,S13.RT,S14.RT,S15.RT,S16.RT,S17.RT,S18.RT,S19.RT,S20.RT,S21.RT,S22.RT,S23.RT,S24.RT,S25.RT,S26.RT,S27.RT,S28.RT,S29.RT,S30.RT,S31.RT,S32.RT,S33.RT,S34.RT,S35.RT,Disambiguation,Spillover,Final,Study,Item,w1,w2,w3,w4,w5,w6,w7,w8,w9,w10,w11,w12,w13,w14,w15,w16,w17,w18,w19,w20,w21,w22,w23,w24,w25,w26,w27,w28,w29,w30,w31,w32,w33,w34,w35,Accuracy,Aspect,Type,average,StandardDeviation,outlier
Spanish,323,65,x,Prog_EarlyClosure,x,Was the bar full?,,,,,,,,395,267,326,61,402,641,316,531,336,266,271,326,319,347,327,342,357,396,368,324,554,,,,,,,,357,362.6666667,554,Aspect,1,,,,,,,,It,was,late,and,the,bar,was,full.,As,the,men,were,drinking,the,strong,beer,was,spilled,on,the,floor.,,?,?,?,?,?,?,1,Prog,EarlyClosure,461.210396,221.0004095,0
Spanish,304,82,m,Prog_EarlyClosure,m,Did Alice and Jim decorate their house every year?,,,,,,,,,299,260,255,249,207,236,258,246,524,431,262,220,242,286,256,335,591,460,349,314,,,,,,,,335,466.6666667,314,Aspect,2,,,,,,,,,Alice,and,Jim,decorated,their,house,every,year.,When,Alice,was,painting,the,kitchen,walls,were,covered,with,many,drops.,?,?,?,?,?,?,?,1,Prog,EarlyClosure,386.3974026,246.417828,0
Spanish,308,10,m,Prog_EarlyClosure,m,Did Alice and Jim decorate their house every year?,,,,,,,,,286,244,290,268,295,281,254,322,286,342,308,287,331,263,290,417,281,318,283,311,,,,,,,,417,294,311,Aspect,2,,,,,,,,,Alice,and,Jim,decorated,their,house,every,year.,When,Alice,was,painting,the,kitchen,walls,were,covered,with,many,drops.,?,?,?,?,?,?,?,1,Prog,EarlyClosure,332.2416667,209.488663,0
Spanish,312,59,m,Prog_EarlyClosure,m,Did Alice and Jim decorate their house every year?,,,,,,,,,370,549,268,480,413,306,197,259,348,283,340,456,360,339,315,473,377,314,268,277,,,,,,,,473,319.6666667,277,Aspect,2,,,,,,,,,Alice,and,Jim,decorated,their,house,every,year.,When,Alice,was,painting,the,kitchen,walls,were,covered,with,many,drops.,?,?,?,?,?,?,?,1,Prog,EarlyClosure,370.1246291,125.9774221,0
Spanish,320,80,m,Prog_EarlyClosure,m,Did Alice and Jim decorate their house every year?,,,,,,,,,39,96,51,97,158,158,50,246,32,228,523.0079858,214,187,71,41,114,35,85,76,128,,,,,,,,114,65.33333333,128,Aspect,2,,,,,,,,,Alice,and,Jim,decorated,their,house,every,year.,When,Alice,was,painting,the,kitchen,walls,were,covered,with,many,drops.,?,?,?,?,?,?,?,1,Prog,EarlyClosure,202.6225895,160.1926981,0
Spanish,324,5,m,Prog_EarlyClosure,m,Did Alice and Jim decorate their house every year?,,,,,,,,,822.307078,493,659,663,530,489,453,425,822.307078,394,426,669,515,673,471,382,556,409,369,546,,,,,,,,382,444.6666667,546,Aspect,2,,,,,,,,,Alice,and,Jim,decorated,their,house,every,year.,When,Alice,was,painting,the,kitchen,walls,were,covered,with,many,drops.,?,?,?,?,?,?,?,1,Prog,EarlyClosure,460.0657895,181.1206443,0
Spanish,328,11,m,Prog_EarlyClosure,m,Did Alice and Jim decorate their house every year?,,,,,,,,,168,151,154,159,151,159,152,172,163,177,176,161,185,166,157,173,171,162,189,178,,,,,,,,173,174,178,Aspect,2,,,,,,,,,Alice,and,Jim,decorated,their,house,every,year.,When,Alice,was,painting,the,kitchen,walls,were,covered,with,many,drops.,?,?,?,?,?,?,?,1,Prog,EarlyClosure,174.2245431,20.76856741,0
Spanish,301,1,x,Prog_EarlyClosure,x,Did Tony hate to sing at parties?,,,,,,,,425,270,271,264,286,293,254,285,350,361,304,282,281,338,292,340,282,372,312,,,,,,,,,,282,372,312,Aspect,3,,,,,,,,Tony,and,his,friends,loved,to,sing,at,parties.,When,Tony,was,singing,the,drinking,song,sounded,like,opera.,?,?,?,?,?,?,?,?,?,1,Prog,EarlyClosure,312.5823096,81.465342,0
Spanish,305,78,x,Prog_EarlyClosure,x,Did Tony hate to sing at parties?,,,,,,,,396,373,385,375,396,412,376,349,355,343,367,360,351,310,307,615,652,369,380,,,,,,,,,,652,369,380,Aspect,3,,,,,,,,Tony,and,his,friends,loved,to,sing,at,parties.,When,Tony,was,singing,the,drinking,song,sounded,like,opera.,?,?,?,?,?,?,?,?,?,1,Prog,EarlyClosure,510.9972376,176.1815597,0
Spanish,309,51,x,Prog_EarlyClosure,x,Did Tony hate to sing at parties?,,,,,,,,318,201,178,168,183,183,180,175,185,189,199,173,150,188,186,187,155,357,256,,,,,,,,,,155,357,256,Aspect,3,,,,,,,,Tony,and,his,friends,loved,to,sing,at,parties.,When,Tony,was,singing,the,drinking,song,sounded,like,opera.,?,?,?,?,?,?,?,?,?,1,Prog,EarlyClosure,237.2635659,123.5790044,0
Spanish,321,17,x,Prog_EarlyClosure,x,Did Tony hate to sing at parties?,,,,,,,,1235,343,512,475,783,637,1646.431246,469,1646.431246,484,359,322,520,352,438,510,453,473,941,,,,,,,,,,453,473,941,Aspect,3,,,,,,,,Tony,and,his,friends,loved,to,sing,at,parties.,When,Tony,was,singing,the,drinking,song,sounded,like,opera.,?,?,?,?,?,?,?,?,?,1,Prog,EarlyClosure,627.5027322,509.4642571,0
Spanish,302,63,m,Prog_EarlyClosure,m,Did John and Sam take their guns into the woods?,,,,,,,139,159,135,203,137,218,160,314,182,244,468,128,122,141,337,297,345,439,383,302,284,561.6179748,,,,,,,,439,323,561.6179748,Aspect,4,,,,,,,John,and,Sam,took,their,guns,out,into,the,woods.,As,John,was,hunting,the,frightened,rabbit,escaped,through,the,dark,trees.,?,?,?,?,?,?,?,1,Prog,EarlyClosure,310.007874,125.8050504,0
Spanish,306,38,m,Prog_EarlyClosure,m,Did John and Sam take their guns into the woods?,,,,,,,452,358,345,485,301,305,857.5467213,475,366,374,770,402,369,661,425,857.5467213,809,683,755,857.5467213,510,661,,,,,,,,683,707.5155738,661,Aspect,4,,,,,,,John,and,Sam,took,their,guns,out,into,the,woods.,As,John,was,hunting,the,frightened,rabbit,escaped,through,the,dark,trees.,?,?,?,?,?,?,?,1,Prog,EarlyClosure,485.7786458,185.8840377,0
Spanish,310,67,m,Prog_EarlyClosure,m,Did John and Sam take their guns into the woods?,,,,,,,490,373,294,355,320,339,522,412,353,409,1508.861386,522,371,619,655,853,545,559,1508.861386,524,415,449,,,,,,,,559,815.9537953,449,Aspect,4,,,,,,,John,and,Sam,took,their,guns,out,into,the,woods.,As,John,was,hunting,the,frightened,rabbit,escaped,through,the,dark,trees.,?,?,?,?,?,?,?,1,Prog,EarlyClosure,555.8843931,476.4884964,0
Spanish,318,81,m,Prog_EarlyClosure,m,Did John and Sam take their guns into the woods?,,,,,,,312,258,239,240,292,263,281,268,265,237,400,247,266,269,264,262,457.3590829,290,336,269,275,287,,,,,,,,290,293.3333333,287,Aspect,4,,,,,,,John,and,Sam,took,their,guns,out,into,the,woods.,As,John,was,hunting,the,frightened,rabbit,escaped,through,the,dark,trees.,?,?,?,?,?,?,?,1,Prog,EarlyClosure,308.3989071,74.48008792,0
Spanish,322,20,m,Prog_EarlyClosure,m,Did John and Sam take their guns into the woods?,,,,,,,160,361,212,219,262,187,229,221,218,224,352,218,272,270,252,237,363.7812369,269,228,265,247,212,,,,,,,,269,246.6666667,212,Aspect,4,,,,,,,John,and,Sam,took,their,guns,out,into,the,woods.,As,John,was,hunting,the,frightened,rabbit,escaped,through,the,dark,trees.,?,?,?,?,?,?,?,1,Prog,EarlyClosure,221.8027397,70.9892486,0
Spanish,326,8,m,Prog_EarlyClosure,m,Did John and Sam take their guns into the woods?,,,,,,,1420,381,1129,707,413,1478.220276,353,497,360,1478.220276,293,378,305,875,392,1478.220276,479,809,1216,425,451,539,,,,,,,,809,697.3333333,539,Aspect,4,,,,,,,John,and,Sam,took,their,guns,out,into,the,woods.,As,John,was,hunting,the,frightened,rabbit,escaped,through,the,dark,trees.,?,?,?,?,?,?,?,1,Prog,EarlyClosure,549.2456647,464.4873055,0
Spanish,307,44,x,Prog_EarlyClosure,x,Did Susan and her children live near her parents?,,,,,,,,394,369,283,272,355,328,386,355,357,378,469,276,338,305,317,322,367,442,409,335,516,,,,,,,,367,395.3333333,516,Aspect,5,,,,,,,,Susan,and,her,children,lived,far,from,her,parents.,When,Susan,was,visiting,the,friendly,neighbors,wanted,to,have,a,party.,?,?,?,?,?,?,?,1,Prog,EarlyClosure,399.6600985,109.5125911,0
Spanish,319,35,x,Prog_EarlyClosure,x,Did Susan and her children live near her parents?,,,,,,,,361,307,484,293,345,380,434,615,903.9982783,370,301,292,424,327,486,390,477,377,335,390,435,,,,,,,,477,367.3333333,435,Aspect,5,,,,,,,,Susan,and,her,children,lived,far,from,her,parents.,When,Susan,was,visiting,the,friendly,neighbors,wanted,to,have,a,party.,?,?,?,?,?,?,?,1,Prog,EarlyClosure,434.9712794,234.5134994,0
Spanish,323,72,x,Prog_EarlyClosure,x,Did Susan and her children live near her parents?,,,,,,,,270,267,262,263,461,223,420,330,335,366,263,274,208,205,437,364,365,325,304,436,370,,,,,,,,365,355,370,Aspect,5,,,,,,,,Susan,and,her,children,lived,far,from,her,parents.,When,Susan,was,visiting,the,friendly,neighbors,wanted,to,have,a,party.,?,?,?,?,?,?,?,1,Prog,EarlyClosure,461.210396,221.0004095,0
Spanish,327,78,x,Prog_EarlyClosure,x,Did Susan and her children live near her parents?,,,,,,,,407,278,386,333,358,341,310,328,411,386,468,505,548,400,373,430,351,338,414,357,531,,,,,,,,351,369.6666667,531,Aspect,5,,,,,,,,Susan,and,her,children,lived,far,from,her,parents.,When,Susan,was,visiting,the,friendly,neighbors,wanted,to,have,a,party.,?,?,?,?,?,?,?,1,Prog,EarlyClosure,498.8251232,219.5884001,0
Spanish,304,84,x,Prog_EarlyClosure,x,Was the flat tidy?,,,,,,,,,294,227,231,224,226,240,255,389,292,219,258,288,270,271,281,291,284,290,326,,,,,,,,,291,287,326,Aspect,6,,,,,,,,,The,flat,was,very,old,and,dirty.,Even,when,Joe,was,cleaning,the,small,kitchen,smelled,like,old,rubbish.,?,?,?,?,?,?,?,?,1,Prog,EarlyClosure,386.3974026,246.417828,0
Spanish,308,7,x,Prog_EarlyClosure,x,Was the flat tidy?,,,,,,,,,349,318,318,359,279,294,331,600,248,305,282,395,291,233,377,295,375,353,509,,,,,,,,,295,364,509,Aspect,6,,,,,,,,,The,flat,was,very,old,and,dirty.,Even,when,Joe,was,cleaning,the,small,kitchen,smelled,like,old,rubbish.,?,?,?,?,?,?,?,?,1,Prog,EarlyClosure,332.2416667,209.488663,0
Spanish,312,73,x,Prog_EarlyClosure,x,Was the flat tidy?,,,,,,,,,269,245,284,547,276,407,260,622.0794733,389,482,294,481,341,450,543,583,422,343,396,,,,,,,,,583,382.5,396,Aspect,6,,,,,,,,,The,flat,was,very,old,and,dirty.,Even,when,Joe,was,cleaning,the,small,kitchen,smelled,like,old,rubbish.,?,?,?,?,?,?,?,?,1,Prog,EarlyClosure,370.1246291,125.9774221,0
Spanish,316,63,x,Prog_EarlyClosure,x,Was the flat tidy?,,,,,,,,,323,246,311,320,393,364,226,283,274,235,280,378,401,373,437.6086996,304,254,284,263,,,,,,,,,304,269,263,Aspect,6,,,,,,,,,The,flat,was,very,old,and,dirty.,Even,when,Joe,was,cleaning,the,small,kitchen,smelled,like,old,rubbish.,?,?,?,?,?,?,?,?,1,Prog,EarlyClosure,273.3123288,82.14818542,0
Spanish,320,29,x,Prog_EarlyClosure,x,Was the flat tidy?,,,,,,,,,189,150,123,141,149,142,141,121,150,328,183,123,141,129,220,280,138,145,137,,,,,,,,,280,141.5,137,Aspect,6,,,,,,,,,The,flat,was,very,old,and,dirty.,Even,when,Joe,was,cleaning,the,small,kitchen,smelled,like,old,rubbish.,?,?,?,?,?,?,?,?,1,Prog,EarlyClosure,202.6225895,160.1926981,0
Spanish,324,37,x,Prog_EarlyClosure,x,Was the flat tidy?,,,,,,,,,385,488,315,387,372,412,393,822.307078,430,586,330,628,625,460,330,579,314,312,392,,,,,,,,,579,313,392,Aspect,6,,,,,,,,,The,flat,was,very,old,and,dirty.,Even,when,Joe,was,cleaning,the,small,kitchen,smelled,like,old,rubbish.,?,?,?,?,?,?,?,?,1,Prog,EarlyClosure,460.0657895,181.1206443,0
Spanish,328,7,x,Prog_EarlyClosure,x,Was the flat tidy?,,,,,,,,,168,198,163,187,190,204,180,171,179,178,193,178,167,185,172,173,186,189,193,,,,,,,,,173,187.5,193,Aspect,6,,,,,,,,,The,flat,was,very,old,and,dirty.,Even,when,Joe,was,cleaning,the,small,kitchen,smelled,like,old,rubbish.,?,?,?,?,?,?,?,?,1,Prog,EarlyClosure,174.2245431,20.76856741,0
Spanish,301,18,m,Prog_EarlyClosure,m,Did the couple want to leave?,,,,350,398,303,432,310,314,334,369,344,393,470,352,401,352,364,345,346,336,347,348,389,270,363,315,,,,,,,,,389,316.5,315,Aspect,7,,,,The,couple,sitting,next,to,me,at,the,restaurant,got,up,to,leave.,As,I,was,watching,the,drunk,man,tripped,over,my,chair.,,?,?,?,?,?,?,?,1,Prog,EarlyClosure,312.5823096,81.465342,0
Spanish,309,72,m,Prog_EarlyClosure,m,Did the couple want to leave?,,,,400,141,180,148,161,194,153,184,166,211,177,166,155,168,158,190,171,181,173,168,163,173,208,250,,,,,,,,,163,190.5,250,Aspect,7,,,,The,couple,sitting,next,to,me,at,the,restaurant,got,up,to,leave.,As,I,was,watching,the,drunk,man,tripped,over,my,chair.,,?,?,?,?,?,?,?,1,Prog,EarlyClosure,237.2635659,123.5790044,0
Spanish,321,30,m,Prog_EarlyClosure,m,Did the couple want to leave?,,,,307,326,565,490,385,427,507,394,739,753,607,824,870,726,602,412,781,573,702,544,1463,608,483,508,,,,,,,,,1463,545.5,508,Aspect,7,,,,The,couple,sitting,next,to,me,at,the,restaurant,got,up,to,leave.,As,I,was,watching,the,drunk,man,tripped,over,my,chair.,,?,?,?,?,?,?,?,1,Prog,EarlyClosure,627.5027322,509.4642571,0
Spanish,302,11,x,Prog_EarlyClosure,x,Were there three Italian chefs working at the restaurant?,,,,,,,,290,144,310,416,315,51,561.6179748,349,561.6179748,433,296,285,377,325,284,353,368,266,301,289,460,,,,,,,,368,285.3333333,460,Aspect,8,,,,,,,,There,were,two,Italian,chefs,working,in,the,restaurant.,Because,Mario,was,cooking,the,fresh,pasta,was,made,to,real,perfection.,?,?,?,?,?,?,?,1,Prog,EarlyClosure,310.007874,125.8050504,0
Spanish,306,35,x,Prog_EarlyClosure,x,Were there three Italian chefs working at the restaurant?,,,,,,,,415,321,359,361,438,572,360,374,629,606,555,401,465,428,510,374,435,407,449,382,857.5467213,,,,,,,,435,412.6666667,857.5467213,Aspect,8,,,,,,,,There,were,two,Italian,chefs,working,in,the,restaurant.,Because,Mario,was,cooking,the,fresh,pasta,was,made,to,real,perfection.,?,?,?,?,?,?,?,1,Prog,EarlyClosure,485.7786458,185.8840377,0
Spanish,310,24,x,Prog_EarlyClosure,x,Were there three Italian chefs working at the restaurant?,,,,,,,,453,529,312,330,322,797,326,367,628,334,428,311,318,402,427,540,428,489,394,359,1015,,,,,,,,428,414,1015,Aspect,8,,,,,,,,There,were,two,Italian,chefs,working,in,the,restaurant.,Because,Mario,was,cooking,the,fresh,pasta,was,made,to,real,perfection.,?,?,?,?,?,?,?,1,Prog,EarlyClosure,555.8843931,476.4884964,0
Spanish,322,58,x,Prog_EarlyClosure,x,Were there three Italian chefs working at the restaurant?,,,,,,,,258,204,145,235,202,175,211,196,199,195,186,189,129,198,183,203,150,221,221,187,144,,,,,,,,150,209.6666667,144,Aspect,8,,,,,,,,There,were,two,Italian,chefs,working,in,the,restaurant.,Because,Mario,was,cooking,the,fresh,pasta,was,made,to,real,perfection.,?,?,?,?,?,?,?,1,Prog,EarlyClosure,221.8027397,70.9892486,0
Spanish,326,7,x,Prog_EarlyClosure,x,Were there three Italian chefs working at the restaurant?,,,,,,,,1478.220276,212,423,291,1478.220276,405,246,315,1441,302,250,997,1478.220276,329,311,861,557,495,342,335,827,,,,,,,,557,390.6666667,827,Aspect,8,,,,,,,,There,were,two,Italian,chefs,working,in,the,restaurant.,Because,Mario,was,cooking,the,fresh,pasta,was,made,to,real,perfection.,?,?,?,?,?,?,?,1,Prog,EarlyClosure,549.2456647,464.4873055,0
Spanish,303,54,m,Prog_EarlyClosure,m,Were there different kinds of vehicles at the company?,,,,,,,260,213,272,342,291,292,271,316,314,299,421,272,300,307,309,389,310,376,335,361,388,304,,,,,,,,376,361.3333333,304,Aspect,9,,,,,,,There,were,many,different,kinds,of,vehicles,at,the,company.,When,George,was,driving,the,big,lorry,made,loud,and,strange,noises.,?,?,?,?,?,?,?,1,Prog,EarlyClosure,353.9235294,132.2639297,0
Spanish,307,1,m,Prog_EarlyClosure,m,Were there different kinds of vehicles at the company?,,,,,,,417,326,618.6852808,488,449,369,555,367,368,472,487,618.6852808,478,368,402,421,360,618.6852808,618.6852808,434,527,518,,,,,,,,618.6852808,526.5617603,518,Aspect,9,,,,,,,There,were,many,different,kinds,of,vehicles,at,the,company.,When,George,was,driving,the,big,lorry,made,loud,and,strange,noises.,?,?,?,?,?,?,?,1,Prog,EarlyClosure,399.6600985,109.5125911,0
Spanish,315,69,m,Prog_EarlyClosure,m,Were there different kinds of vehicles at the company?,,,,,,,455,330,531,575,425,429,396,817,436,342,399,489,482,392,349,344,299,738,284,359,291,359,,,,,,,,738,311.3333333,359,Aspect,9,,,,,,,There,were,many,different,kinds,of,vehicles,at,the,company.,When,George,was,driving,the,big,lorry,made,loud,and,strange,noises.,?,?,?,?,?,?,?,1,Prog,EarlyClosure,450.7025316,190.0499604,0
Spanish,319,24,m,Prog_EarlyClosure,m,Were there different kinds of vehicles at the company?,,,,,,,307,270,449,329,494,271,284,311,259,385,329,266,441,446,253,322,541,493,686,449,724,630,,,,,,,,493,619.6666667,630,Aspect,9,,,,,,,There,were,many,different,kinds,of,vehicles,at,the,company.,When,George,was,driving,the,big,lorry,made,loud,and,strange,noises.,?,?,?,?,?,?,?,1,Prog,EarlyClosure,434.9712794,234.5134994,0
Spanish,323,80,m,Prog_EarlyClosure,m,Were there different kinds of vehicles at the company?,,,,,,,414,379,442,500,903.211215,499,903.211215,563,419,533,903.211215,903.211215,396,447,903.211215,429,903.211215,903.211215,569,823,473,879,,,,,,,,903.211215,621.6666667,879,Aspect,9,,,,,,,There,were,many,different,kinds,of,vehicles,at,the,company.,When,George,was,driving,the,big,lorry,made,loud,and,strange,noises.,?,?,?,?,?,?,?,1,Prog,EarlyClosure,461.210396,221.0004095,0
Spanish,327,1,m,Prog_EarlyClosure,m,Were there different kinds of vehicles at the company?,,,,,,,538,356,382,445,580,938.0019234,675,475,349,385,689,528,440,789,800,938.0019234,703,648,624,404,587,677,,,,,,,,648,538.3333333,677,Aspect,9,,,,,,,There,were,many,different,kinds,of,vehicles,at,the,company.,When,George,was,driving,the,big,lorry,made,loud,and,strange,noises.,?,?,?,?,?,?,?,1,Prog,EarlyClosure,498.8251232,219.5884001,0
Spanish,304,68,m,Prog_EarlyClosure,m,Did the opera company have three different conductors?,,,,,,,,,306,266,281,265,271,282,247,516,298,486,307,428,312,290,351,412,333,329,297,330,,,,,,,,412,319.6666667,330,Aspect,10,,,,,,,,,The,opera,company,had,three,different,conductors.,When,Mr.,Osaka,was,conducting,the,symphony,orchestra,played,better,than,anyone,else.,?,?,?,?,?,?,?,1,Prog,EarlyClosure,386.3974026,246.417828,0
Spanish,308,34,m,Prog_EarlyClosure,m,Did the opera company have three different conductors?,,,,,,,,,187,237,240,236,623,216,301,751.2189927,249,295,250,236,299,510,346,548,698,287,246,263,,,,,,,,548,410.3333333,263,Aspect,10,,,,,,,,,The,opera,company,had,three,different,conductors.,When,Mr.,Osaka,was,conducting,the,symphony,orchestra,played,better,than,anyone,else.,?,?,?,?,?,?,?,1,Prog,EarlyClosure,332.2416667,209.488663,0
Spanish,312,41,m,Prog_EarlyClosure,m,Did the opera company have three different conductors?,,,,,,,,,325,269,242,248,244,225,362,362,346,266,531,263,370,306,395,344,411,325,348,337,,,,,,,,344,361.3333333,337,Aspect,10,,,,,,,,,The,opera,company,had,three,different,conductors.,When,Mr.,Osaka,was,conducting,the,symphony,orchestra,played,better,than,anyone,else.,?,?,?,?,?,?,?,1,Prog,EarlyClosure,370.1246291,125.9774221,0
Spanish,316,50,m,Prog_EarlyClosure,m,Did the opera company have three different conductors?,,,,,,,,,236,255,253,287,233,205,223,235,211,218,247,301,219,230,283,426,293,245,273,265,,,,,,,,426,270.3333333,265,Aspect,10,,,,,,,,,The,opera,company,had,three,different,conductors.,When,Mr.,Osaka,was,conducting,the,symphony,orchestra,played,better,than,anyone,else.,?,?,?,?,?,?,?,1,Prog,EarlyClosure,273.3123288,82.14818542,0
Spanish,320,58,m,Prog_EarlyClosure,m,Did the opera company have three different conductors?,,,,,,,,,167,163,111,160,248,171,188,270,177,188,208,144,262,128,160,207,523.0079858,222,157,168,,,,,,,,207,300.6693286,168,Aspect,10,,,,,,,,,The,opera,company,had,three,different,conductors.,When,Mr.,Osaka,was,conducting,the,symphony,orchestra,played,better,than,anyone,else.,?,?,?,?,?,?,?,1,Prog,EarlyClosure,202.6225895,160.1926981,0
Spanish,324,17,m,Prog_EarlyClosure,m,Did the opera company have three different conductors?,,,,,,,,,380,496,161,677,408,596,822.307078,513,207,822.307078,390,351,559,542,817,446,551,313,302,306,,,,,,,,446,388.6666667,306,Aspect,10,,,,,,,,,The,opera,company,had,three,different,conductors.,When,Mr.,Osaka,was,conducting,the,symphony,orchestra,played,better,than,anyone,else.,?,?,?,?,?,?,?,1,Prog,EarlyClosure,460.0657895,181.1206443,0
Spanish,328,23,m,Prog_EarlyClosure,m,Did the opera company have three different conductors?,,,,,,,,,149,159,156,157,172,183,175,157,181,161,196,181,174,200,181,163,163,170,174,181,,,,,,,,163,169,181,Aspect,10,,,,,,,,,The,opera,company,had,three,different,conductors.,When,Mr.,Osaka,was,conducting,the,symphony,orchestra,played,better,than,anyone,else.,?,?,?,?,?,?,?,1,Prog,EarlyClosure,174.2245431,20.76856741,0
Spanish,301,11,m,Prog_EarlyClosure,m,Was the town safe?,,,,,,,266,329,328,290,343,475.5129936,352,302,282,328,311,337,359,292,475.5129936,269,346,475.5129936,329,341,392,,,,,,,,,475.5129936,335,392,Aspect,11,,,,,,,On,Saturday,"nights,",the,police,department,was,very,busy.,When,the,sheriff,was,patrolling,the,whole,town,was,safe,and,secure.,?,?,?,?,?,?,?,?,1,Prog,EarlyClosure,312.5823096,81.465342,0
Spanish,305,49,m,Prog_EarlyClosure,m,Was the town safe?,,,,,,,641,673,863.360357,536,473,447,408,378,760,380,501,434,438,472,488,513,608,544,488,396,669,,,,,,,,,544,442,669,Aspect,11,,,,,,,On,Saturday,"nights,",the,police,department,was,very,busy.,When,the,sheriff,was,patrolling,the,whole,town,was,safe,and,secure.,?,?,?,?,?,?,?,?,1,Prog,EarlyClosure,510.9972376,176.1815597,0
Spanish,309,23,m,Prog_EarlyClosure,m,Was the town safe?,,,,,,,275,215,194,179,181,218,381,172,171,199,346,168,184,360,280,191,162,184,182,195,238,,,,,,,,,184,188.5,238,Aspect,11,,,,,,,On,Saturday,"nights,",the,police,department,was,very,busy.,When,the,sheriff,was,patrolling,the,whole,town,was,safe,and,secure.,?,?,?,?,?,?,?,?,1,Prog,EarlyClosure,237.2635659,123.5790044,0
Spanish,321,38,m,Prog_EarlyClosure,m,Was the town safe?,,,,,,,410,402,403,368,394,700,527,472,449,668,548,796,534,1646.431246,356,406,418,367,430,452,657,,,,,,,,,367,441,657,Aspect,11,,,,,,,On,Saturday,"nights,",the,police,department,was,very,busy.,When,the,sheriff,was,patrolling,the,whole,town,was,safe,and,secure.,?,?,?,?,?,?,?,?,1,Prog,EarlyClosure,627.5027322,509.4642571,0
Spanish,302,4,m,Prog_EarlyClosure,m,Did the horse jump a fence?,,,,,,,,,362,296,320,327,354,349,359,354,421,329,353,364,366,365,368,332,329,365,360,333,341,,,,,,,332,346.75,341,Aspect,12,,,,,,,,,Jenny,and,Sam,went,out,for,a,ride.,While,Jenny,was,riding,the,young,horse,decided,to,jump,a,high,fence.,?,?,?,?,?,?,1,Prog,EarlyClosure,310.007874,125.8050504,0
Spanish,306,9,m,Prog_EarlyClosure,m,Did the horse jump a fence?,,,,,,,,,488,346,407,315,365,392,403,363,611,420,386,419,857.5467213,474,701,735,444,597,532,534,857.5467213,,,,,,,735,526.75,857.5467213,Aspect,12,,,,,,,,,Jenny,and,Sam,went,out,for,a,ride.,While,Jenny,was,riding,the,young,horse,decided,to,jump,a,high,fence.,?,?,?,?,?,?,1,Prog,EarlyClosure,485.7786458,185.8840377,0
Spanish,310,23,m,Prog_EarlyClosure,m,Did the horse jump a fence?,,,,,,,,,478,1508.861386,674,412,450,230,269,232,1443,436,479,676,406,623,542,1508.861386,339,370,405,335,417,,,,,,,1508.861386,362.25,417,Aspect,12,,,,,,,,,Jenny,and,Sam,went,out,for,a,ride.,While,Jenny,was,riding,the,young,horse,decided,to,jump,a,high,fence.,?,?,?,?,?,?,1,Prog,EarlyClosure,555.8843931,476.4884964,0
Spanish,318,43,m,Prog_EarlyClosure,m,Did the horse jump a fence?,,,,,,,,,457.3590829,457.3590829,290,294,293,288,248,305,264,313,284,283,243,259,273,457.3590829,342,284,314,282,289,,,,,,,457.3590829,305.5,289,Aspect,12,,,,,,,,,Jenny,and,Sam,went,out,for,a,ride.,While,Jenny,was,riding,the,young,horse,decided,to,jump,a,high,fence.,?,?,?,?,?,?,1,Prog,EarlyClosure,308.3989071,74.48008792,0
Spanish,322,32,m,Prog_EarlyClosure,m,Did the horse jump a fence?,,,,,,,,,196,190,240,191,218,167,223,224,257,229,218,185,206,238,237,216,232,210,233,189,203,,,,,,,216,216,203,Aspect,12,,,,,,,,,Jenny,and,Sam,went,out,for,a,ride.,While,Jenny,was,riding,the,young,horse,decided,to,jump,a,high,fence.,?,?,?,?,?,?,1,Prog,EarlyClosure,221.8027397,70.9892486,0
Spanish,326,25,m,Prog_EarlyClosure,m,Did the horse jump a fence?,,,,,,,,,233,232,217,324,334,350,191,382,1241,210,244,431,380,527,320,554,376,208,401,328,324,,,,,,,554,328.25,324,Aspect,12,,,,,,,,,Jenny,and,Sam,went,out,for,a,ride.,While,Jenny,was,riding,the,young,horse,decided,to,jump,a,high,fence.,?,?,?,?,?,?,1,Prog,EarlyClosure,549.2456647,464.4873055,0
Spanish,303,74,x,Prog_EarlyClosure,x,Were the workers lazy?,,,,,,,252,233,233,265,260,242,216,250,264,260,299,323,284,280,361,273,330,321,618.4513888,441,,,,,,,,,,321,618.4513888,441,Aspect,13,,,,,,,Maggie,and,Fred,were,the,two,supervisors,at,the,factory.,When,Maggie,was,supervising,the,night,staff,worked,extremely,efficiently.,?,?,?,?,?,?,?,?,?,1,Prog,EarlyClosure,353.9235294,132.2639297,0
Spanish,307,77,x,Prog_EarlyClosure,x,Were the workers lazy?,,,,,,,304,536,270,379,502,388,509,293,319,315,431,317,352,418,270,339,302,519,328,527,,,,,,,,,,519,328,527,Aspect,13,,,,,,,Maggie,and,Fred,were,the,two,supervisors,at,the,factory.,When,Maggie,was,supervising,the,night,staff,worked,extremely,efficiently.,?,?,?,?,?,?,?,?,?,1,Prog,EarlyClosure,399.6600985,109.5125911,0
Spanish,319,50,x,Prog_EarlyClosure,x,Were the workers lazy?,,,,,,,532,331,367,461,293,559,351,432,213,462,308,447,283,455,294,401,350,296,399,335,,,,,,,,,,296,399,335,Aspect,13,,,,,,,Maggie,and,Fred,were,the,two,supervisors,at,the,factory.,When,Maggie,was,supervising,the,night,staff,worked,extremely,efficiently.,?,?,?,?,?,?,?,?,?,1,Prog,EarlyClosure,434.9712794,234.5134994,0
Spanish,323,29,x,Prog_EarlyClosure,x,Were the workers lazy?,,,,,,,413,285,251,421,483,440,526,903.211215,541,474,418,217,520,463,403,488,696,903.211215,711,903.211215,,,,,,,,,,903.211215,711,903.211215,Aspect,13,,,,,,,Maggie,and,Fred,were,the,two,supervisors,at,the,factory.,When,Maggie,was,supervising,the,night,staff,worked,extremely,efficiently.,?,?,?,?,?,?,?,?,?,1,Prog,EarlyClosure,461.210396,221.0004095,0
Spanish,327,52,x,Prog_EarlyClosure,x,Were the workers lazy?,,,,,,,425,350,262,763,423,391,660,349,399,524,361,518,570,747,363,475,750,512,560,782,,,,,,,,,,512,560,782,Aspect,13,,,,,,,Maggie,and,Fred,were,the,two,supervisors,at,the,factory.,When,Maggie,was,supervising,the,night,staff,worked,extremely,efficiently.,?,?,?,?,?,?,?,?,?,1,Prog,EarlyClosure,498.8251232,219.5884001,0
Spanish,304,46,x,Prog_EarlyClosure,x,Did the ice-cream drop down the boyÍs pants?,,,,,,,354,339,378,307,341,334,332,312,456,336,313,335,355,382,324,393,355,544,362,395,389,328,,,,,,,,544,382,328,Aspect,14,,,,,,,In,the,"park,",two,children,were,eating,some,ice-cream.,As,the,boy,was,eating,the,chocolate,ice-cream,dropped,down,his,clean,shirt.,?,?,?,?,?,?,?,1,Prog,EarlyClosure,386.3974026,246.417828,0
Spanish,312,71,x,Prog_EarlyClosure,x,Did the ice-cream drop down the boyÍs pants?,,,,,,,336,241,325,268,385,292,343,371,326,353,296,270,408,427,315,300,330,338,310,299,267,341,,,,,,,,338,292,341,Aspect,14,,,,,,,In,the,"park,",two,children,were,eating,some,ice-cream.,As,the,boy,was,eating,the,chocolate,ice-cream,dropped,down,his,clean,shirt.,?,?,?,?,?,?,?,1,Prog,EarlyClosure,370.1246291,125.9774221,0
Spanish,316,15,x,Prog_EarlyClosure,x,Did the ice-cream drop down the boyÍs pants?,,,,,,,216,230,239,239,241,222,179,362,362,311,237,237,361,235,270,322,273,322,306,297,264,305,,,,,,,,322,289,305,Aspect,14,,,,,,,In,the,"park,",two,children,were,eating,some,ice-cream.,As,the,boy,was,eating,the,chocolate,ice-cream,dropped,down,his,clean,shirt.,?,?,?,?,?,?,?,1,Prog,EarlyClosure,273.3123288,82.14818542,0
Spanish,320,77,x,Prog_EarlyClosure,x,Did the ice-cream drop down the boyÍs pants?,,,,,,,170,274,115,147,273,118,66,196,176,163,167,166,151,146,523.0079858,313,138,187,159,272,203,232,,,,,,,,187,211.3333333,232,Aspect,14,,,,,,,In,the,"park,",two,children,were,eating,some,ice-cream.,As,the,boy,was,eating,the,chocolate,ice-cream,dropped,down,his,clean,shirt.,?,?,?,?,?,?,?,1,Prog,EarlyClosure,202.6225895,160.1926981,0
Spanish,324,20,x,Prog_EarlyClosure,x,Did the ice-cream drop down the boyÍs pants?,,,,,,,373,243,380,383,510,354,378,337,782,366,313,282,337,383,395,312,444,440,509,372,381,460,,,,,,,,440,420.6666667,460,Aspect,14,,,,,,,In,the,"park,",two,children,were,eating,some,ice-cream.,As,the,boy,was,eating,the,chocolate,ice-cream,dropped,down,his,clean,shirt.,?,?,?,?,?,?,?,1,Prog,EarlyClosure,460.0657895,181.1206443,0
Spanish,301,38,x,Prog_EarlyClosure,x,Did the tree stay steady?,231,261,290,315,399,311,286,314,301,292,290,274,254,275,257,356,286,301,335,322,304,258,270,353,276,249,278,,,,,,,,,353,262.5,278,Aspect,15,In,the,"garden,",a,boy,and,a,girl,wanted,to,go,up,into,the,tree-house.,While,the,girl,was,climbing,the,tall,tree,started,to,shake,dangerously.,?,?,?,?,?,?,?,?,1,Prog,EarlyClosure,312.5823096,81.465342,0
Spanish,305,63,x,Prog_EarlyClosure,x,Did the tree stay steady?,568,324,471,375,386,407,364,390,356,366,383,353,406,377,863.360357,479,392,496,433,863.360357,553,419,406,441,375,369,556,,,,,,,,,441,372,556,Aspect,15,In,the,"garden,",a,boy,and,a,girl,wanted,to,go,up,into,the,tree-house.,While,the,girl,was,climbing,the,tall,tree,started,to,shake,dangerously.,?,?,?,?,?,?,?,?,1,Prog,EarlyClosure,510.9972376,176.1815597,0
Spanish,309,64,x,Prog_EarlyClosure,x,Did the tree stay steady?,334,196,163,166,175,176,175,179,181,177,190,186,169,179,174,190,181,375,175,197,297,175,196,176,186,207,219,,,,,,,,,176,196.5,219,Aspect,15,In,the,"garden,",a,boy,and,a,girl,wanted,to,go,up,into,the,tree-house.,While,the,girl,was,climbing,the,tall,tree,started,to,shake,dangerously.,?,?,?,?,?,?,?,?,1,Prog,EarlyClosure,237.2635659,123.5790044,0
Spanish,321,37,x,Prog_EarlyClosure,x,Did the tree stay steady?,521,570,1274,517,403,601,569,558,623,469,444,461,549,746,1188,505,553,391,373,554,580,1039,554,356,372,653,1495,,,,,,,,,356,512.5,1495,Aspect,15,In,the,"garden,",a,boy,and,a,girl,wanted,to,go,up,into,the,tree-house.,While,the,girl,was,climbing,the,tall,tree,started,to,shake,dangerously.,?,?,?,?,?,?,?,?,1,Prog,EarlyClosure,627.5027322,509.4642571,0
Spanish,302,34,m,Prog_EarlyClosure,m,Did the furniture look expensive?,,,,,,,,247,561.6179748,343,287,245,227,331,205,237,561.6179748,498,318,346,315,185,369,277,256,308,419,,,,,,,,,277,282,419,Aspect,16,,,,,,,,Sarah,and,Jane,owned,a,shop,selling,old,furniture.,When,Sarah,was,polishing,the,cheap,furniture,looked,new,and,expensive.,?,?,?,?,?,?,?,?,1,Prog,EarlyClosure,310.007874,125.8050504,0
Spanish,306,78,m,Prog_EarlyClosure,m,Did the furniture look expensive?,,,,,,,,677,390,286,328,604,414,352,612,829,490,488,373,580,857.5467213,574,761,719,484,419,647,,,,,,,,,719,451.5,647,Aspect,16,,,,,,,,Sarah,and,Jane,owned,a,shop,selling,old,furniture.,When,Sarah,was,polishing,the,cheap,furniture,looked,new,and,expensive.,?,?,?,?,?,?,?,?,1,Prog,EarlyClosure,485.7786458,185.8840377,0
Spanish,310,12,m,Prog_EarlyClosure,m,Did the furniture look expensive?,,,,,,,,719,338,305,368,441,347,255,738,348,503,285,286,363,525,399,329,869,387,312,485,,,,,,,,,869,349.5,485,Aspect,16,,,,,,,,Sarah,and,Jane,owned,a,shop,selling,old,furniture.,When,Sarah,was,polishing,the,cheap,furniture,looked,new,and,expensive.,?,?,?,?,?,?,?,?,1,Prog,EarlyClosure,555.8843931,476.4884964,0
Spanish,318,84,m,Prog_EarlyClosure,m,Did the furniture look expensive?,,,,,,,,295,227,242,256,265,271,264,262,299,261,275,425,286,300,291,266,284,289,286,263,,,,,,,,,284,287.5,263,Aspect,16,,,,,,,,Sarah,and,Jane,owned,a,shop,selling,old,furniture.,When,Sarah,was,polishing,the,cheap,furniture,looked,new,and,expensive.,?,?,?,?,?,?,?,?,1,Prog,EarlyClosure,308.3989071,74.48008792,0
Spanish,322,70,m,Prog_EarlyClosure,m,Did the furniture look expensive?,,,,,,,,198,183,229,211,192,225,186,363.7812369,228,268,213,182,216,262,206,363.7812369,163,182,175,197,,,,,,,,,163,178.5,197,Aspect,16,,,,,,,,Sarah,and,Jane,owned,a,shop,selling,old,furniture.,When,Sarah,was,polishing,the,cheap,furniture,looked,new,and,expensive.,?,?,?,?,?,?,?,?,1,Prog,EarlyClosure,221.8027397,70.9892486,0
Spanish,326,2,m,Prog_EarlyClosure,m,Did the furniture look expensive?,,,,,,,,1478.220276,551,1438,308,436,1478.220276,253,1236,1125,1478.220276,339,341,1478.220276,947,1149,1300,723,770,629,1478.220276,,,,,,,,,723,699.5,1478.220276,Aspect,16,,,,,,,,Sarah,and,Jane,owned,a,shop,selling,old,furniture.,When,Sarah,was,polishing,the,cheap,furniture,looked,new,and,expensive.,?,?,?,?,?,?,?,?,1,Prog,EarlyClosure,549.2456647,464.4873055,0
Spanish,303,32,x,Prog_EarlyClosure,x,Did the clothes stay whole?,,,,,,,,271,252,287,278,257,286,367,408,413,405,251,283,443,223,368,337,280,237,335,354,,,,,,,,,280,286,354,Aspect,17,,,,,,,,Rita,and,Violet,took,turns,to,do,the,washing.,When,Rita,was,washing,the,delicate,clothes,were,torn,to,pieces.,,?,?,?,?,?,?,?,1,Prog,EarlyClosure,353.9235294,132.2639297,0
Spanish,307,9,x,Prog_EarlyClosure,x,Did the clothes stay whole?,,,,,,,,408,346,311,378,333,382,370,340,420,618.6852808,512,273,352,333,411,466,411,455,419,557,,,,,,,,,411,437,557,Aspect,17,,,,,,,,Rita,and,Violet,took,turns,to,do,the,washing.,When,Rita,was,washing,the,delicate,clothes,were,torn,to,pieces.,,?,?,?,?,?,?,?,1,Prog,EarlyClosure,399.6600985,109.5125911,0
Spanish,315,72,x,Prog_EarlyClosure,x,Did the clothes stay whole?,,,,,,,,255,315,361,350,324,305,281,497,291,430,368,372,404,274,243,253,226,249,432,283,,,,,,,,,226,340.5,283,Aspect,17,,,,,,,,Rita,and,Violet,took,turns,to,do,the,washing.,When,Rita,was,washing,the,delicate,clothes,were,torn,to,pieces.,,?,?,?,?,?,?,?,1,Prog,EarlyClosure,450.7025316,190.0499604,0
Spanish,319,58,x,Prog_EarlyClosure,x,Did the clothes stay whole?,,,,,,,,518,292,635,635,268,362,450,454,903.9982783,447,328,337,466,411,408,388,324,386,549,903.9982783,,,,,,,,,324,467.5,903.9982783,Aspect,17,,,,,,,,Rita,and,Violet,took,turns,to,do,the,washing.,When,Rita,was,washing,the,delicate,clothes,were,torn,to,pieces.,,?,?,?,?,?,?,?,1,Prog,EarlyClosure,434.9712794,234.5134994,0
Spanish,323,41,x,Prog_EarlyClosure,x,Did the clothes stay whole?,,,,,,,,453,903.211215,437,467,359,643,448,397,615,698,433,342,328,373,338,573,539,344,529,689,,,,,,,,,539,436.5,689,Aspect,17,,,,,,,,Rita,and,Violet,took,turns,to,do,the,washing.,When,Rita,was,washing,the,delicate,clothes,were,torn,to,pieces.,,?,?,?,?,?,?,?,1,Prog,EarlyClosure,461.210396,221.0004095,0
Spanish,327,8,x,Prog_EarlyClosure,x,Did the clothes stay whole?,,,,,,,,672,478,724,698,595,521,579,530,938.0019234,512,416,391,570,388,938.0019234,633,397,808,483,938.0019234,,,,,,,,,397,645.5,938.0019234,Aspect,17,,,,,,,,Rita,and,Violet,took,turns,to,do,the,washing.,When,Rita,was,washing,the,delicate,clothes,were,torn,to,pieces.,,?,?,?,?,?,?,?,1,Prog,EarlyClosure,498.8251232,219.5884001,0
Spanish,304,70,m,Prog_EarlyClosure,m,Was the eviction notice canceled?,,,,,,,,,,317,254,371,245,285,321,879.2330586,325,223,414,508,469,734,444,639,528,360,323,,,,,,,,,639,444,323,Aspect,18,,,,,,,,,,The,lawyersÍ,office,was,rather,busy.,As,the,secretary,was,typing,the,eviction,notice,was,canceled,very,suddenly.,?,?,?,?,?,?,?,?,1,Prog,EarlyClosure,386.3974026,246.417828,0
Spanish,308,67,m,Prog_EarlyClosure,m,Was the eviction notice canceled?,,,,,,,,,,198,207,467,155,181,182,209,200,205,370,161,231,236,693,572,283,358,275,,,,,,,,,572,320.5,275,Aspect,18,,,,,,,,,,The,lawyersÍ,office,was,rather,busy.,As,the,secretary,was,typing,the,eviction,notice,was,canceled,very,suddenly.,?,?,?,?,?,?,?,?,1,Prog,EarlyClosure,332.2416667,209.488663,0
Spanish,312,52,m,Prog_EarlyClosure,m,Was the eviction notice canceled?,,,,,,,,,,318,229,620,338,420,454,369,360,341,285,301,311,322,444,317,259,382,194,,,,,,,,,317,320.5,194,Aspect,18,,,,,,,,,,The,lawyersÍ,office,was,rather,busy.,As,the,secretary,was,typing,the,eviction,notice,was,canceled,very,suddenly.,?,?,?,?,?,?,?,?,1,Prog,EarlyClosure,370.1246291,125.9774221,0
Spanish,316,23,m,Prog_EarlyClosure,m,Was the eviction notice canceled?,,,,,,,,,,233,262,261,269,297,255,408,254,294,311,250,258,309,310,216,304,267,277,,,,,,,,,216,285.5,277,Aspect,18,,,,,,,,,,The,lawyersÍ,office,was,rather,busy.,As,the,secretary,was,typing,the,eviction,notice,was,canceled,very,suddenly.,?,?,?,?,?,?,?,?,1,Prog,EarlyClosure,273.3123288,82.14818542,0
Spanish,320,79,m,Prog_EarlyClosure,m,Was the eviction notice canceled?,,,,,,,,,,148,65,146,88,34,92,71,63,148,182,167,128,111,74,100,16,118,125,,,,,,,,,100,67,125,Aspect,18,,,,,,,,,,The,lawyersÍ,office,was,rather,busy.,As,the,secretary,was,typing,the,eviction,notice,was,canceled,very,suddenly.,?,?,?,?,?,?,?,?,1,Prog,EarlyClosure,202.6225895,160.1926981,0
Spanish,324,12,m,Prog_EarlyClosure,m,Was the eviction notice canceled?,,,,,,,,,,290,635,570,581,753,252,320,281,456,368,284,333,196,822.307078,698,534,697,551,,,,,,,,,698,615.5,551,Aspect,18,,,,,,,,,,The,lawyersÍ,office,was,rather,busy.,As,the,secretary,was,typing,the,eviction,notice,was,canceled,very,suddenly.,?,?,?,?,?,?,?,?,1,Prog,EarlyClosure,460.0657895,181.1206443,0
Spanish,328,62,m,Prog_EarlyClosure,m,Was the eviction notice canceled?,,,,,,,,,,164,138,165,167,186,172,179,182,184,170,208,192,202,156,198,201,210,209,,,,,,,,,198,205.5,209,Aspect,18,,,,,,,,,,The,lawyersÍ,office,was,rather,busy.,As,the,secretary,was,typing,the,eviction,notice,was,canceled,very,suddenly.,?,?,?,?,?,?,?,?,1,Prog,EarlyClosure,174.2245431,20.76856741,0
Spanish,301,47,m,Prog_EarlyClosure,m,Did the model keep still?,,,475.5129936,314,275,277,283,351,292,246,314,274,293,291,292,317,348,323,332,329,313,285,343,338,294,343,322,298,358,,,,,,,338,314.25,358,Aspect,19,,,Yesterday,in,my,art,"class,",the,model,sat,in,the,same,position,for,hours.,As,I,was,drawing,the,patient,woman,tried,very,hard,to,keep,still.,?,?,?,?,?,?,1,Prog,EarlyClosure,312.5823096,81.465342,0
Spanish,305,21,m,Prog_EarlyClosure,m,Did the model keep still?,,,479,399,449,388,663,552,497,546,411,394,412,473,389,514,693,353,369,655,444,459,583,637,599,552,598,566,601,,,,,,,637,578.75,601,Aspect,19,,,Yesterday,in,my,art,"class,",the,model,sat,in,the,same,position,for,hours.,As,I,was,drawing,the,patient,woman,tried,very,hard,to,keep,still.,?,?,?,?,?,?,1,Prog,EarlyClosure,510.9972376,176.1815597,0
Spanish,309,10,m,Prog_EarlyClosure,m,Did the model keep still?,,,415,374,194,216,374,283,293,275,290,252,259,266,296,251,368,254,247,249,313,318,306,297,314,292,287,265,272,,,,,,,297,289.5,272,Aspect,19,,,Yesterday,in,my,art,"class,",the,model,sat,in,the,same,position,for,hours.,As,I,was,drawing,the,patient,woman,tried,very,hard,to,keep,still.,?,?,?,?,?,?,1,Prog,EarlyClosure,237.2635659,123.5790044,0
Spanish,321,68,m,Prog_EarlyClosure,m,Did the model keep still?,,,671,544,471,404,388,1240,393,380,442,360,376,423,386,865,439,439,418,427,356,413,556,527,406,484,447,423,953,,,,,,,527,440,953,Aspect,19,,,Yesterday,in,my,art,"class,",the,model,sat,in,the,same,position,for,hours.,As,I,was,drawing,the,patient,woman,tried,very,hard,to,keep,still.,?,?,?,?,?,?,1,Prog,EarlyClosure,627.5027322,509.4642571,0
Spanish,302,58,x,Prog_EarlyClosure,x,Did Mrs. Brown park well?,,,,,,,322,264,270,240,198,168,237,216,321,243,164,191,196,186,514,227,246,354,312,269,279,442,,,,,,,,354,286.6666667,442,Aspect,20,,,,,,,The,driving,instructor,almost,gave,up,on,Mrs.,Brown.,When,the,woman,was,parking,the,new,car,was,always,at,an,angle.,?,?,?,?,?,?,?,1,Prog,EarlyClosure,310.007874,125.8050504,0
Spanish,318,51,x,Prog_EarlyClosure,x,Did Mrs. Brown park well?,,,,,,,457.3590829,314,334,343,361,329,351,309,292,317,290,300,340,380,315,286,300,331,300,287,271,342,,,,,,,,331,286,342,Aspect,20,,,,,,,The,driving,instructor,almost,gave,up,on,Mrs.,Brown.,When,the,woman,was,parking,the,new,car,was,always,at,an,angle.,?,?,?,?,?,?,?,1,Prog,EarlyClosure,308.3989071,74.48008792,0
Spanish,322,14,x,Prog_EarlyClosure,x,Did Mrs. Brown park well?,,,,,,,177,240,209,363.7812369,243,210,227,221,304,231,214,225,235,230,232,363.7812369,343,325,239,258,214,216,,,,,,,,325,237,216,Aspect,20,,,,,,,The,driving,instructor,almost,gave,up,on,Mrs.,Brown.,When,the,woman,was,parking,the,new,car,was,always,at,an,angle.,?,?,?,?,?,?,?,1,Prog,EarlyClosure,221.8027397,70.9892486,0
Spanish,326,56,x,Prog_EarlyClosure,x,Did Mrs. Brown park well?,,,,,,,542,466,217,293,1217,192,263,424,328,369,769,340,270,432,289,560,343,336,537,305,334,1478.220276,,,,,,,,336,392,1478.220276,Aspect,20,,,,,,,The,driving,instructor,almost,gave,up,on,Mrs.,Brown.,When,the,woman,was,parking,the,new,car,was,always,at,an,angle.,?,?,?,?,?,?,?,1,Prog,EarlyClosure,549.2456647,464.4873055,0
Spanish,324,26,x,Prog_LateClosure,x,Was the bar full?,,,,,,,,384,522,509,359,254,433,327,350,425,202,150,701,563,423,351,368,395,354,226,469,353,547,,,,,,,374.5,349.3333333,547,Aspect,1,,,,,,,,It,was,late,and,the,bar,was,full.,As,the,men,were,drinking,the,strong,beer,it,was,spilled,on,the,floor.,?,?,?,?,?,?,1,Prog,LateClosure,460.0657895,181.1206443,0
Spanish,301,15,m,Prog_LateClosure,m,Did Alice and Jim decorate their house every year?,,,,,,,,,360,382,325,370,475.5129936,354,438,475.5129936,357,333,301,319,298,347,388,357,358,339,362,335,325,,,,,,,357.5,345.3333333,325,Aspect,2,,,,,,,,,Alice,and,Jim,decorated,their,house,every,year.,When,Alice,was,painting,the,kitchen,walls,they,were,covered,with,many,drops.,?,?,?,?,?,?,1,Prog,LateClosure,312.5823096,81.465342,0
Spanish,305,71,m,Prog_LateClosure,m,Did Alice and Jim decorate their house every year?,,,,,,,,,299,348,320,388,305,287,406,347,350,354,346,320,335,395,327,381,411,70,863.360357,375,563,,,,,,,396,436.120119,563,Aspect,2,,,,,,,,,Alice,and,Jim,decorated,their,house,every,year.,When,Alice,was,painting,the,kitchen,walls,they,were,covered,with,many,drops.,?,?,?,?,?,?,1,Prog,LateClosure,510.9972376,176.1815597,0
Spanish,309,12,m,Prog_LateClosure,m,Did Alice and Jim decorate their house every year?,,,,,,,,,385,254,282,252,272,270,260,248,257,244,225,256,261,241,301,283,264,272,313,337,227,,,,,,,273.5,307.3333333,227,Aspect,2,,,,,,,,,Alice,and,Jim,decorated,their,house,every,year.,When,Alice,was,painting,the,kitchen,walls,they,were,covered,with,many,drops.,?,?,?,?,?,?,1,Prog,LateClosure,237.2635659,123.5790044,0
Spanish,321,83,m,Prog_LateClosure,m,Did Alice and Jim decorate their house every year?,,,,,,,,,394,478,549,734,497,462,682,552,431,413,424,777,451,483,619,454,442,522,422,529,468,,,,,,,448,491,468,Aspect,2,,,,,,,,,Alice,and,Jim,decorated,their,house,every,year.,When,Alice,was,painting,the,kitchen,walls,they,were,covered,with,many,drops.,?,?,?,?,?,?,1,Prog,LateClosure,627.5027322,509.4642571,0
Spanish,302,51,x,Prog_LateClosure,x,Did Tony hate to sing at parties?,,,,,,,,252,561.6179748,314,269,274,266,263,347,149,482,130,132,334,318,126,375,280,308,294,321,,,,,,,,,294,294,321,Aspect,3,,,,,,,,Tony,and,his,friends,loved,to,sing,at,parties.,When,Tony,was,singing,the,drinking,song,it,sounded,like,opera.,?,?,?,?,?,?,?,?,1,Prog,LateClosure,310.007874,125.8050504,0
Spanish,306,17,x,Prog_LateClosure,x,Did Tony hate to sing at parties?,,,,,,,,485,427,369,390,328,363,354,857.5467213,694,424,382,323,594,745,719,580,857.5467213,649,537,649,,,,,,,,,753.2733606,537,649,Aspect,3,,,,,,,,Tony,and,his,friends,loved,to,sing,at,parties.,When,Tony,was,singing,the,drinking,song,it,sounded,like,opera.,?,?,?,?,?,?,?,?,1,Prog,LateClosure,485.7786458,185.8840377,0
Spanish,310,72,x,Prog_LateClosure,x,Did Tony hate to sing at parties?,,,,,,,,1123,380,310,402,422,381,303,426,628,392,269,416,273,412,701,662,896,1508.861386,485,1067,,,,,,,,,1202.430693,485,1067,Aspect,3,,,,,,,,Tony,and,his,friends,loved,to,sing,at,parties.,When,Tony,was,singing,the,drinking,song,it,sounded,like,opera.,?,?,?,?,?,?,?,?,1,Prog,LateClosure,555.8843931,476.4884964,0
Spanish,318,76,x,Prog_LateClosure,x,Did Tony hate to sing at parties?,,,,,,,,291,279,266,253,283,269,266,265,241,266,265,263,249,254,264,310,457.3590829,339,307,272,,,,,,,,,398.1795415,307,272,Aspect,3,,,,,,,,Tony,and,his,friends,loved,to,sing,at,parties.,When,Tony,was,singing,the,drinking,song,it,sounded,like,opera.,?,?,?,?,?,?,?,?,1,Prog,LateClosure,308.3989071,74.48008792,0
Spanish,322,36,x,Prog_LateClosure,x,Did Tony hate to sing at parties?,,,,,,,,202,210,148,191,183,169,210,171,247,201,223,231,201,204,331,253,221,211,228,238,,,,,,,,,216,228,238,Aspect,3,,,,,,,,Tony,and,his,friends,loved,to,sing,at,parties.,When,Tony,was,singing,the,drinking,song,it,sounded,like,opera.,?,?,?,?,?,?,?,?,1,Prog,LateClosure,221.8027397,70.9892486,0
Spanish,326,40,x,Prog_LateClosure,x,Did Tony hate to sing at parties?,,,,,,,,1478.220276,216,300,724,430,455,391,376,1478.220276,350,370,460,1478.220276,271,487,361,444,510,1142,308,,,,,,,,,477,1142,308,Aspect,3,,,,,,,,Tony,and,his,friends,loved,to,sing,at,parties.,When,Tony,was,singing,the,drinking,song,it,sounded,like,opera.,?,?,?,?,?,?,?,?,1,Prog,LateClosure,549.2456647,464.4873055,0
Spanish,303,82,m,Prog_LateClosure,m,Did John and Sam take their guns into the woods?,,,,,,,297,378,233,276,583,273,618.4513888,248,302,427,618.4513888,316,261,544,493,532,282,400,283,399,342,318,398,,,,,,,341.5,353,398,Aspect,4,,,,,,,John,and,Sam,took,their,guns,out,into,the,woods.,As,John,was,hunting,the,frightened,rabbit,it,escaped,through,the,dark,trees.,?,?,?,?,?,?,1,Prog,LateClosure,353.9235294,132.2639297,0
Spanish,307,17,m,Prog_LateClosure,m,Did John and Sam take their guns into the woods?,,,,,,,379,353,300,318,307,336,295,339,525,409,403,449,492,485,337,408,577,423,458,448,317,459,348,,,,,,,440.5,408,348,Aspect,4,,,,,,,John,and,Sam,took,their,guns,out,into,the,woods.,As,John,was,hunting,the,frightened,rabbit,it,escaped,through,the,dark,trees.,?,?,?,?,?,?,1,Prog,LateClosure,399.6600985,109.5125911,0
Spanish,315,67,m,Prog_LateClosure,m,Did John and Sam take their guns into the woods?,,,,,,,270,230,453,612,296,350,483,502,315,458,701,156,287,644,359,272,542,465,830.8024525,284,321,224,603,,,,,,,647.9012263,276.3333333,603,Aspect,4,,,,,,,John,and,Sam,took,their,guns,out,into,the,woods.,As,John,was,hunting,the,frightened,rabbit,it,escaped,through,the,dark,trees.,?,?,?,?,?,?,1,Prog,LateClosure,450.7025316,190.0499604,0
Spanish,319,11,m,Prog_LateClosure,m,Did John and Sam take their guns into the woods?,,,,,,,556,407,393,347,414,356,379,423,574,903.9982783,353,570,358,557,309,903.9982783,568,387,471,461,362,539,592,,,,,,,429,454,592,Aspect,4,,,,,,,John,and,Sam,took,their,guns,out,into,the,woods.,As,John,was,hunting,the,frightened,rabbit,it,escaped,through,the,dark,trees.,?,?,?,?,?,?,1,Prog,LateClosure,434.9712794,234.5134994,0
Spanish,327,45,m,Prog_LateClosure,m,Did John and Sam take their guns into the woods?,,,,,,,358,425,404,404,353,371,496,483,516,609,392,485,378,682,394,938,496,575,558,573,353,341,343,,,,,,,566.5,422.3333333,343,Aspect,4,,,,,,,John,and,Sam,took,their,guns,out,into,the,woods.,As,John,was,hunting,the,frightened,rabbit,it,escaped,through,the,dark,trees.,?,?,?,?,?,?,1,Prog,LateClosure,498.8251232,219.5884001,0
Spanish,304,45,x,Prog_LateClosure,x,Did Susan and her children live near her parents?,,,,,,,,374,547,372,340,332,475,556,465,579,789,550,462,423,347,432,365,409,339,296,386,370,416,,,,,,,374,350.6666667,416,Aspect,5,,,,,,,,Susan,and,her,children,lived,far,from,her,parents.,When,Susan,was,visiting,the,friendly,neighbors,they,wanted,to,have,a,party.,?,?,?,?,?,?,1,Prog,LateClosure,386.3974026,246.417828,0
Spanish,308,4,x,Prog_LateClosure,x,Did Susan and her children live near her parents?,,,,,,,,515,361,329,471,321,380,372,271,398,751.2189927,450,376,499,362,323,430,353,313,372,324,360,393,,,,,,,333,352,393,Aspect,5,,,,,,,,Susan,and,her,children,lived,far,from,her,parents.,When,Susan,was,visiting,the,friendly,neighbors,they,wanted,to,have,a,party.,?,?,?,?,?,?,1,Prog,LateClosure,332.2416667,209.488663,0
Spanish,312,33,x,Prog_LateClosure,x,Did Susan and her children live near her parents?,,,,,,,,317,248,238,328,318,322,343,265,246,380,328,388,389,333,398,511,622.0794733,325,310,265,455,286,,,,,,,473.5397366,343.3333333,286,Aspect,5,,,,,,,,Susan,and,her,children,lived,far,from,her,parents.,When,Susan,was,visiting,the,friendly,neighbors,they,wanted,to,have,a,party.,?,?,?,?,?,?,1,Prog,LateClosure,370.1246291,125.9774221,0
Spanish,316,54,x,Prog_LateClosure,x,Did Susan and her children live near her parents?,,,,,,,,282,243,225,224,284,204,195,233,230,199,220,437.6086996,224,231,205,275,437.6086996,283,265,244,238,249,,,,,,,360.3043498,249,249,Aspect,5,,,,,,,,Susan,and,her,children,lived,far,from,her,parents.,When,Susan,was,visiting,the,friendly,neighbors,they,wanted,to,have,a,party.,?,?,?,?,?,?,1,Prog,LateClosure,273.3123288,82.14818542,0
Spanish,324,38,x,Prog_LateClosure,x,Did Susan and her children live near her parents?,,,,,,,,822.307078,554,442,514,388,364,385,361,399,382,430,386,520,406,563,467,547,445,408,398,444,526,,,,,,,496,416.6666667,526,Aspect,5,,,,,,,,Susan,and,her,children,lived,far,from,her,parents.,When,Susan,was,visiting,the,friendly,neighbors,they,wanted,to,have,a,party.,?,?,?,?,?,?,1,Prog,LateClosure,460.0657895,181.1206443,0
Spanish,328,5,x,Prog_LateClosure,x,Did Susan and her children live near her parents?,,,,,,,,177,171,174,208,211,187,181,177,197,168,188,156,190,187,169,172,164,177,180,188,189,174,,,,,,,170.5,185.6666667,174,Aspect,5,,,,,,,,Susan,and,her,children,lived,far,from,her,parents.,When,Susan,was,visiting,the,friendly,neighbors,they,wanted,to,have,a,party.,?,?,?,?,?,?,1,Prog,LateClosure,174.2245431,20.76856741,0
Spanish,301,19,x,Prog_LateClosure,x,Was the flat tidy?,,,,,,,,,312,291,341,294,339,385,340,365,475.5129936,475.5129936,423,475.5129936,315,334,307,313,314,327,318,366,,,,,,,,313.5,322.5,366,Aspect,6,,,,,,,,,The,flat,was,very,old,and,dirty.,Even,when,Joe,was,cleaning,the,small,kitchen,it,smelled,like,old,rubbish.,?,?,?,?,?,?,?,1,Prog,LateClosure,312.5823096,81.465342,0
Spanish,305,57,x,Prog_LateClosure,x,Was the flat tidy?,,,,,,,,,518,341,484,563,863.360357,577,710,594,564,634,530,482,420,424,650,612,507,347,362,386,,,,,,,,559.5,354.5,386,Aspect,6,,,,,,,,,The,flat,was,very,old,and,dirty.,Even,when,Joe,was,cleaning,the,small,kitchen,it,smelled,like,old,rubbish.,?,?,?,?,?,?,?,1,Prog,LateClosure,510.9972376,176.1815597,0
Spanish,309,76,x,Prog_LateClosure,x,Was the flat tidy?,,,,,,,,,315,146,184,166,163,182,168,161,187,167,146,141,201,173,159,168,168,202,178,187,,,,,,,,168,190,187,Aspect,6,,,,,,,,,The,flat,was,very,old,and,dirty.,Even,when,Joe,was,cleaning,the,small,kitchen,it,smelled,like,old,rubbish.,?,?,?,?,?,?,?,1,Prog,LateClosure,237.2635659,123.5790044,0
Spanish,306,37,m,Prog_LateClosure,m,Did the couple want to leave?,,,,361,282,320,329,286,271,337,311,511,332,338,521,430,579,455,360,410,373,357,400,387,693,481,377,573,,,,,,,,540,429,573,Aspect,7,,,,The,couple,sitting,next,to,me,at,the,restaurant,got,up,to,leave.,As,I,was,watching,the,drunk,man,he,tripped,over,my,chair.,?,?,?,?,?,?,?,1,Prog,LateClosure,485.7786458,185.8840377,0
Spanish,310,39,m,Prog_LateClosure,m,Did the couple want to leave?,,,,333,460,622,363,570,361,319,278,250,280,256,319,436,513,301,389,1144,660,1021,1172,423,612,481,598,710,,,,,,,,517.5,539.5,710,Aspect,7,,,,The,couple,sitting,next,to,me,at,the,restaurant,got,up,to,leave.,As,I,was,watching,the,drunk,man,he,tripped,over,my,chair.,?,?,?,?,?,?,?,1,Prog,LateClosure,555.8843931,476.4884964,0
Spanish,318,36,m,Prog_LateClosure,m,Did the couple want to leave?,,,,280,310,301,291,271,316,289,306,250,259,273,286,327,328,262,306,320,307,290,320,277,404,328,290,457.3590829,,,,,,,,340.5,309,457.3590829,Aspect,7,,,,The,couple,sitting,next,to,me,at,the,restaurant,got,up,to,leave.,As,I,was,watching,the,drunk,man,he,tripped,over,my,chair.,?,?,?,?,?,?,?,1,Prog,LateClosure,308.3989071,74.48008792,0
Spanish,322,45,m,Prog_LateClosure,m,Did the couple want to leave?,,,,285,222,164,224,215,160,254,218,184,210,174,220,363.7812369,268,211,164,266,158,167,229,227,173,280,199,205,,,,,,,,200,239.5,205,Aspect,7,,,,The,couple,sitting,next,to,me,at,the,restaurant,got,up,to,leave.,As,I,was,watching,the,drunk,man,he,tripped,over,my,chair.,?,?,?,?,?,?,?,1,Prog,LateClosure,221.8027397,70.9892486,0
Spanish,326,62,m,Prog_LateClosure,m,Did the couple want to leave?,,,,302,389,269,273,325,225,445,194,171,1478.220276,156,199,298,1019,195,266,552,232,605,342,371,290,645,340,375,,,,,,,,330.5,492.5,375,Aspect,7,,,,The,couple,sitting,next,to,me,at,the,restaurant,got,up,to,leave.,As,I,was,watching,the,drunk,man,he,tripped,over,my,chair.,?,?,?,?,?,?,?,1,Prog,LateClosure,549.2456647,464.4873055,0
Spanish,307,30,x,Prog_LateClosure,x,Were there three Italian chefs working at the restaurant?,,,,,,,,320,356,328,313,338,320,321,322,316,350,347,363,419,282,321,296,359,323,316,360,341,494,,,,,,,341,339,494,Aspect,8,,,,,,,,There,were,two,Italian,chefs,working,in,the,restaurant.,Because,Mario,was,cooking,the,fresh,pasta,it,was,made,to,real,perfection.,?,?,?,?,?,?,1,Prog,LateClosure,399.6600985,109.5125911,0
Spanish,315,14,x,Prog_LateClosure,x,Were there three Italian chefs working at the restaurant?,,,,,,,,830.8024525,830.8024525,517,593,547,541,487,389,611,485,457,466,611,616,395,459,391,392,570,669,573,579,,,,,,,391.5,604,579,Aspect,8,,,,,,,,There,were,two,Italian,chefs,working,in,the,restaurant.,Because,Mario,was,cooking,the,fresh,pasta,it,was,made,to,real,perfection.,?,?,?,?,?,?,1,Prog,LateClosure,450.7025316,190.0499604,0
Spanish,319,61,x,Prog_LateClosure,x,Were there three Italian chefs working at the restaurant?,,,,,,,,288,277,294,538,154,903.9982783,385,375,903.9982783,297,242,586,270,325,487,357,481,541,332,348,474,455,,,,,,,511,384.6666667,455,Aspect,8,,,,,,,,There,were,two,Italian,chefs,working,in,the,restaurant.,Because,Mario,was,cooking,the,fresh,pasta,it,was,made,to,real,perfection.,?,?,?,?,?,?,1,Prog,LateClosure,434.9712794,234.5134994,0
Spanish,323,32,x,Prog_LateClosure,x,Were there three Italian chefs working at the restaurant?,,,,,,,,234,299,257,275,285,284,370,258,557,344,222,268,491,381,349,335,293,380,295,363,388,867,,,,,,,336.5,348.6666667,867,Aspect,8,,,,,,,,There,were,two,Italian,chefs,working,in,the,restaurant.,Because,Mario,was,cooking,the,fresh,pasta,it,was,made,to,real,perfection.,?,?,?,?,?,?,1,Prog,LateClosure,461.210396,221.0004095,0
Spanish,327,54,x,Prog_LateClosure,x,Were there three Italian chefs working at the restaurant?,,,,,,,,383,382,375,537,428,573,545,298,491,508,389,374,458,322,476,340,331,375,400,370,430,826,,,,,,,353,400,826,Aspect,8,,,,,,,,There,were,two,Italian,chefs,working,in,the,restaurant.,Because,Mario,was,cooking,the,fresh,pasta,it,was,made,to,real,perfection.,?,?,?,?,?,?,1,Prog,LateClosure,498.8251232,219.5884001,0
Spanish,304,51,m,Prog_LateClosure,m,Were there different kinds of vehicles at the company?,,,,,,,325,266,287,321,303,495,307,291,255,369,308,322,321,325,362,315,321,369,302,348,329,348,365,,,,,,,335.5,341.6666667,365,Aspect,9,,,,,,,There,were,many,different,kinds,of,vehicles,at,the,company.,When,George,was,driving,the,big,lorry,it,made,loud,and,strange,noises.,?,?,?,?,?,?,1,Prog,LateClosure,386.3974026,246.417828,0
Spanish,312,16,m,Prog_LateClosure,m,Were there different kinds of vehicles at the company?,,,,,,,289,144,154,584,273,322,337,315,280,159,503,203,206,307,313,342,329,315,329,295,341,266,458,,,,,,,322,300.6666667,458,Aspect,9,,,,,,,There,were,many,different,kinds,of,vehicles,at,the,company.,When,George,was,driving,the,big,lorry,it,made,loud,and,strange,noises.,?,?,?,?,?,?,1,Prog,LateClosure,370.1246291,125.9774221,0
Spanish,316,56,m,Prog_LateClosure,m,Were there different kinds of vehicles at the company?,,,,,,,250,213,230,229,186,241,212,239,211,157,230,229,239,254,197,202,245,270,234,361,223,261,247,,,,,,,252,281.6666667,247,Aspect,9,,,,,,,There,were,many,different,kinds,of,vehicles,at,the,company.,When,George,was,driving,the,big,lorry,it,made,loud,and,strange,noises.,?,?,?,?,?,?,1,Prog,LateClosure,273.3123288,82.14818542,0
Spanish,320,18,m,Prog_LateClosure,m,Were there different kinds of vehicles at the company?,,,,,,,285,359,151,141,148,315,322,146,150,113,138,200,149,163,173,326,247,261,268,286,244,274,275,,,,,,,264.5,268,275,Aspect,9,,,,,,,There,were,many,different,kinds,of,vehicles,at,the,company.,When,George,was,driving,the,big,lorry,it,made,loud,and,strange,noises.,?,?,?,?,?,?,1,Prog,LateClosure,202.6225895,160.1926981,0
Spanish,324,32,m,Prog_LateClosure,m,Were there different kinds of vehicles at the company?,,,,,,,361,431,559,706,549,341,657,444,239,424,822.307078,263,342,326,663,258,349,449,423,409,559,462,283,,,,,,,436,476.6666667,283,Aspect,9,,,,,,,There,were,many,different,kinds,of,vehicles,at,the,company.,When,George,was,driving,the,big,lorry,it,made,loud,and,strange,noises.,?,?,?,?,?,?,1,Prog,LateClosure,460.0657895,181.1206443,0
Spanish,328,60,m,Prog_LateClosure,m,Were there different kinds of vehicles at the company?,,,,,,,204,156,215,215.7616779,184,148,201,215.7616779,194,144,170,202,153,173,182,183,168,153,184,174,189,189,198,,,,,,,168.5,184,198,Aspect,9,,,,,,,There,were,many,different,kinds,of,vehicles,at,the,company.,When,George,was,driving,the,big,lorry,it,made,loud,and,strange,noises.,?,?,?,?,?,?,1,Prog,LateClosure,174.2245431,20.76856741,0
Spanish,301,61,m,Prog_LateClosure,m,Did the opera company have three different conductors?,,,,,,,,,240,254,254,287,263,258,254,256,327,230,237,240,319,266,302,282,250,275,244,244,270,,,,,,,266,254.3333333,270,Aspect,10,,,,,,,,,The,opera,company,had,three,different,conductors.,When,Mr.,Osaka,was,conducting,the,symphony,orchestra,it,played,better,than,anyone,else.,?,?,?,?,?,?,1,Prog,LateClosure,312.5823096,81.465342,0
Spanish,309,82,m,Prog_LateClosure,m,Did the opera company have three different conductors?,,,,,,,,,295,150,131,163,167,157,158,143,170,157,164,154,180,160,181,173,143,179,138,171,142,,,,,,,158,162.6666667,142,Aspect,10,,,,,,,,,The,opera,company,had,three,different,conductors.,When,Mr.,Osaka,was,conducting,the,symphony,orchestra,it,played,better,than,anyone,else.,?,?,?,?,?,?,1,Prog,LateClosure,237.2635659,123.5790044,0
Spanish,321,73,m,Prog_LateClosure,m,Did the opera company have three different conductors?,,,,,,,,,286,481,605,303,1646.431246,511,558,1226,384,527,470,611,413,494,633,446,628,543,416,512,537,,,,,,,537,490.3333333,537,Aspect,10,,,,,,,,,The,opera,company,had,three,different,conductors.,When,Mr.,Osaka,was,conducting,the,symphony,orchestra,it,played,better,than,anyone,else.,?,?,?,?,?,?,1,Prog,LateClosure,627.5027322,509.4642571,0
Spanish,302,31,m,Prog_LateClosure,m,Was the town safe?,,,,,,,385,147,134,338,379,109,487,384,305,561.6179748,105,153,322,329,430,123,134,419,428,326,332,327,,,,,,,,423.5,329,327,Aspect,11,,,,,,,On,Saturday,"nights,",the,police,department,was,very,busy.,When,the,sheriff,was,patrolling,the,whole,town,it,was,safe,and,secure.,?,?,?,?,?,?,?,1,Prog,LateClosure,310.007874,125.8050504,0
Spanish,306,77,m,Prog_LateClosure,m,Was the town safe?,,,,,,,342,279,262,434,528,370,292,279,372,326,316,311,546,857.5467213,338,342,324,370,341,397,448,709,,,,,,,,355.5,422.5,709,Aspect,11,,,,,,,On,Saturday,"nights,",the,police,department,was,very,busy.,When,the,sheriff,was,patrolling,the,whole,town,it,was,safe,and,secure.,?,?,?,?,?,?,?,1,Prog,LateClosure,485.7786458,185.8840377,0
Spanish,310,27,m,Prog_LateClosure,m,Was the town safe?,,,,,,,485,363,294,282,274,332,331,446,385,1508.861386,434,506,363,338,546,315,345,319,256,334,413,259,,,,,,,,287.5,373.5,259,Aspect,11,,,,,,,On,Saturday,"nights,",the,police,department,was,very,busy.,When,the,sheriff,was,patrolling,the,whole,town,it,was,safe,and,secure.,?,?,?,?,?,?,?,1,Prog,LateClosure,555.8843931,476.4884964,0
Spanish,318,25,m,Prog_LateClosure,m,Was the town safe?,,,,,,,457.3590829,457.3590829,272,339,345,405,270,273,330,378,323,372,277,457.3590829,325,336,296,420,317,280,332,385,,,,,,,,368.5,306,385,Aspect,11,,,,,,,On,Saturday,"nights,",the,police,department,was,very,busy.,When,the,sheriff,was,patrolling,the,whole,town,it,was,safe,and,secure.,?,?,?,?,?,?,?,1,Prog,LateClosure,308.3989071,74.48008792,0
Spanish,322,59,m,Prog_LateClosure,m,Was the town safe?,,,,,,,154,171,170,167,151,337,168,166,205,191,189,235,188,153,196,206,201,183,190,221,168,194,,,,,,,,186.5,194.5,194,Aspect,11,,,,,,,On,Saturday,"nights,",the,police,department,was,very,busy.,When,the,sheriff,was,patrolling,the,whole,town,it,was,safe,and,secure.,?,?,?,?,?,?,?,1,Prog,LateClosure,221.8027397,70.9892486,0
Spanish,326,71,m,Prog_LateClosure,m,Was the town safe?,,,,,,,495,194,224,206,315,138,155,823,267,620,435,1198,218,726,277,297,776,314,236,199,209,431,,,,,,,,275,204,431,Aspect,11,,,,,,,On,Saturday,"nights,",the,police,department,was,very,busy.,When,the,sheriff,was,patrolling,the,whole,town,it,was,safe,and,secure.,?,?,?,?,?,?,?,1,Prog,LateClosure,549.2456647,464.4873055,0
Spanish,303,3,m,Prog_LateClosure,m,Did the horse jump a fence?,,,,,,,,,564,330,556,505,313,468,318,618.4513888,488,363,428,437,383,255,426,556,618.4513888,499,339,368,527,618.4513888,,,,,,587.2256944,433.25,618.4513888,Aspect,12,,,,,,,,,Jenny,and,Sam,went,out,for,a,ride.,While,Jenny,was,riding,the,young,horse,it,decided,to,jump,a,high,fence.,?,?,?,?,?,1,Prog,LateClosure,353.9235294,132.2639297,0
Spanish,307,36,m,Prog_LateClosure,m,Did the horse jump a fence?,,,,,,,,,492,434,278,344,417,432,306,331,348,392,348,377,416,330,504,537,618.6852808,329,618.6852808,329,475,570,,,,,,577.8426404,437.9213202,570,Aspect,12,,,,,,,,,Jenny,and,Sam,went,out,for,a,ride.,While,Jenny,was,riding,the,young,horse,it,decided,to,jump,a,high,fence.,?,?,?,?,?,1,Prog,LateClosure,399.6600985,109.5125911,0
Spanish,315,78,m,Prog_LateClosure,m,Did the horse jump a fence?,,,,,,,,,256,292,629,385,260,276,278,292,239,382,256,330,243,300,288,373,361,457,464,418,469,588,,,,,,367,452,588,Aspect,12,,,,,,,,,Jenny,and,Sam,went,out,for,a,ride.,While,Jenny,was,riding,the,young,horse,it,decided,to,jump,a,high,fence.,?,?,?,?,?,1,Prog,LateClosure,450.7025316,190.0499604,0
Spanish,319,34,m,Prog_LateClosure,m,Did the horse jump a fence?,,,,,,,,,286,360,147,453,361,387,270,703,416,223,392,313,352,342,423,433,903.9982783,357,408,387,423,392,,,,,,668.4991391,393.75,392,Aspect,12,,,,,,,,,Jenny,and,Sam,went,out,for,a,ride.,While,Jenny,was,riding,the,young,horse,it,decided,to,jump,a,high,fence.,?,?,?,?,?,1,Prog,LateClosure,434.9712794,234.5134994,0
Spanish,323,19,m,Prog_LateClosure,m,Did the horse jump a fence?,,,,,,,,,356,317,365,348,443,410,368,320,484,351,457,673,321,413,390,418,377,354,522,474,612,518,,,,,,397.5,490.5,518,Aspect,12,,,,,,,,,Jenny,and,Sam,went,out,for,a,ride.,While,Jenny,was,riding,the,young,horse,it,decided,to,jump,a,high,fence.,?,?,?,?,?,1,Prog,LateClosure,461.210396,221.0004095,0
Spanish,327,63,m,Prog_LateClosure,m,Did the horse jump a fence?,,,,,,,,,555,455,562,554,532,530,410,938.0019234,368,571,614,596,508,483,595,396,357,335,375,358,538,413,,,,,,376.5,401.5,413,Aspect,12,,,,,,,,,Jenny,and,Sam,went,out,for,a,ride.,While,Jenny,was,riding,the,young,horse,it,decided,to,jump,a,high,fence.,?,?,?,?,?,1,Prog,LateClosure,498.8251232,219.5884001,0
Spanish,304,83,x,Prog_LateClosure,x,Were the workers lazy?,,,,,,,370,261,220,394,265,371,247,488,329,310,879.2330586,493,310,235,299,247,227,265,289,276,265,,,,,,,,,277,276,265,Aspect,13,,,,,,,Maggie,and,Fred,were,the,two,supervisors,at,the,factory.,When,Maggie,was,supervising,the,night,staff,they,worked,extremely,efficiently.,?,?,?,?,?,?,?,?,1,Prog,LateClosure,386.3974026,246.417828,0
Spanish,308,38,x,Prog_LateClosure,x,Were the workers lazy?,,,,,,,191,258,251,200,631,244,215,573,264,237,346,201,232,236,262,250,263,245,297,510,478,,,,,,,,,271,510,478,Aspect,13,,,,,,,Maggie,and,Fred,were,the,two,supervisors,at,the,factory.,When,Maggie,was,supervising,the,night,staff,they,worked,extremely,efficiently.,?,?,?,?,?,?,?,?,1,Prog,LateClosure,332.2416667,209.488663,0
Spanish,312,37,x,Prog_LateClosure,x,Were the workers lazy?,,,,,,,300,285,292,360,306,285,378,454,341,291,424,307,425,528,469,349,461,622.0794733,327,379,622,,,,,,,,,474.5397366,379,622,Aspect,13,,,,,,,Maggie,and,Fred,were,the,two,supervisors,at,the,factory.,When,Maggie,was,supervising,the,night,staff,they,worked,extremely,efficiently.,?,?,?,?,?,?,?,?,1,Prog,LateClosure,370.1246291,125.9774221,0
Spanish,316,72,x,Prog_LateClosure,x,Were the workers lazy?,,,,,,,226,176,213,238,223,241,437.6086996,272,260,436,258,213,220,437.6086996,243,234,336,213,218,224,360,,,,,,,,,215.5,224,360,Aspect,13,,,,,,,Maggie,and,Fred,were,the,two,supervisors,at,the,factory.,When,Maggie,was,supervising,the,night,staff,they,worked,extremely,efficiently.,?,?,?,?,?,?,?,?,1,Prog,LateClosure,273.3123288,82.14818542,0
Spanish,320,37,x,Prog_LateClosure,x,Were the workers lazy?,,,,,,,523.0079858,154,167,162,195,129,176,353,428,156,174,227,347,185,152,172,199,177,209,163,179,,,,,,,,,193,163,179,Aspect,13,,,,,,,Maggie,and,Fred,were,the,two,supervisors,at,the,factory.,When,Maggie,was,supervising,the,night,staff,they,worked,extremely,efficiently.,?,?,?,?,?,?,?,?,1,Prog,LateClosure,202.6225895,160.1926981,0
Spanish,324,33,x,Prog_LateClosure,x,Were the workers lazy?,,,,,,,428,247,526,297,215,239,390,204,569,219,352,430,176,644,343,437,480,447,354,362,573,,,,,,,,,400.5,362,573,Aspect,13,,,,,,,Maggie,and,Fred,were,the,two,supervisors,at,the,factory.,When,Maggie,was,supervising,the,night,staff,they,worked,extremely,efficiently.,?,?,?,?,?,?,?,?,1,Prog,LateClosure,460.0657895,181.1206443,0
Spanish,328,40,x,Prog_LateClosure,x,Were the workers lazy?,,,,,,,188,185,166,178,187,178,157,171,187,183,181,169,197,165,175,181,164,152,200,186,189,,,,,,,,,176,186,189,Aspect,13,,,,,,,Maggie,and,Fred,were,the,two,supervisors,at,the,factory.,When,Maggie,was,supervising,the,night,staff,they,worked,extremely,efficiently.,?,?,?,?,?,?,?,?,1,Prog,LateClosure,174.2245431,20.76856741,0
Spanish,301,58,x,Prog_LateClosure,x,Did the ice-cream drop down the boyÍs pants?,,,,,,,279,207,250,257,244,246,227,223,259,245,287,240,229,335,277,269,268,280,294,285,275,286,347,,,,,,,287,282,347,Aspect,14,,,,,,,In,the,"park,",two,children,were,eating,some,ice-cream.,As,the,boy,was,eating,the,chocolate,ice-cream,it,dropped,down,his,clean,shirt.,?,?,?,?,?,?,1,Prog,LateClosure,312.5823096,81.465342,0
Spanish,305,46,x,Prog_LateClosure,x,Did the ice-cream drop down the boyÍs pants?,,,,,,,417,444,430,466,538,556,486,586,586,563,461,401,323,335,376,396,408,495,423,413,484,452,564,,,,,,,459,449.6666667,564,Aspect,14,,,,,,,In,the,"park,",two,children,were,eating,some,ice-cream.,As,the,boy,was,eating,the,chocolate,ice-cream,it,dropped,down,his,clean,shirt.,?,?,?,?,?,?,1,Prog,LateClosure,510.9972376,176.1815597,0
Spanish,309,1,x,Prog_LateClosure,x,Did the ice-cream drop down the boyÍs pants?,,,,,,,375,331,314,310,338,275,292,308,457,484.4215747,484.4215747,264,332,343,300,367,318,324,327,277,300,293,333,,,,,,,325.5,290,333,Aspect,14,,,,,,,In,the,"park,",two,children,were,eating,some,ice-cream.,As,the,boy,was,eating,the,chocolate,ice-cream,it,dropped,down,his,clean,shirt.,?,?,?,?,?,?,1,Prog,LateClosure,237.2635659,123.5790044,0
Spanish,321,59,x,Prog_LateClosure,x,Did the ice-cream drop down the boyÍs pants?,,,,,,,271,426,460,546,718,407,958,460,660,521,459,392,513,636,460,691,594,436,494,468,586,527,701,,,,,,,465,527,701,Aspect,14,,,,,,,In,the,"park,",two,children,were,eating,some,ice-cream.,As,the,boy,was,eating,the,chocolate,ice-cream,it,dropped,down,his,clean,shirt.,?,?,?,?,?,?,1,Prog,LateClosure,627.5027322,509.4642571,0
Spanish,302,29,x,Prog_LateClosure,x,Did the tree stay steady?,132,137,273,251,348,121,253,262,350,252,261,272,517,259,202,561.6179748,128,318,357,365,283,120,356,360,387,374,302,422,,,,,,,,373.5,338,422,Aspect,15,In,the,"garden,",a,boy,and,a,girl,wanted,to,go,up,into,the,tree-house.,While,the,girl,was,climbing,the,tall,tree,it,started,to,shake,dangerously.,?,?,?,?,?,?,?,1,Prog,LateClosure,310.007874,125.8050504,0
Spanish,306,44,x,Prog_LateClosure,x,Did the tree stay steady?,521,379,350,328,318,298,362,329,501,316,309,298,427,326,779,390,363,386,367,707,377,361,405,335,786,323,438,850,,,,,,,,560.5,380.5,850,Aspect,15,In,the,"garden,",a,boy,and,a,girl,wanted,to,go,up,into,the,tree-house.,While,the,girl,was,climbing,the,tall,tree,it,started,to,shake,dangerously.,?,?,?,?,?,?,?,1,Prog,LateClosure,485.7786458,185.8840377,0
Spanish,310,16,x,Prog_LateClosure,x,Did the tree stay steady?,544,300,277,322,311,250,304,242,272,401,1508.861386,779,546,1111,1153,595,325,281,390,522,351,355,436,462,488,310,356,1508.861386,,,,,,,,475,333,1508.861386,Aspect,15,In,the,"garden,",a,boy,and,a,girl,wanted,to,go,up,into,the,tree-house.,While,the,girl,was,climbing,the,tall,tree,it,started,to,shake,dangerously.,?,?,?,?,?,?,?,1,Prog,LateClosure,555.8843931,476.4884964,0
Spanish,318,40,x,Prog_LateClosure,x,Did the tree stay steady?,457.3590829,380,429,352,285,283,267,261,270,271,256,290,282,290,282,406,283,284,263,305,288,284,457.3590829,317,342,286,329,457.3590829,,,,,,,,329.5,307.5,457.3590829,Aspect,15,In,the,"garden,",a,boy,and,a,girl,wanted,to,go,up,into,the,tree-house.,While,the,girl,was,climbing,the,tall,tree,it,started,to,shake,dangerously.,?,?,?,?,?,?,?,1,Prog,LateClosure,308.3989071,74.48008792,0
Spanish,322,73,x,Prog_LateClosure,x,Did the tree stay steady?,168,198,172,193,165,165,156,154,150,191,180,151,158,174,127,176,180,165,162,198,143,189,163,177,176,220,195,183,,,,,,,,176.5,207.5,183,Aspect,15,In,the,"garden,",a,boy,and,a,girl,wanted,to,go,up,into,the,tree-house.,While,the,girl,was,climbing,the,tall,tree,it,started,to,shake,dangerously.,?,?,?,?,?,?,?,1,Prog,LateClosure,221.8027397,70.9892486,0
Spanish,326,5,x,Prog_LateClosure,x,Did the tree stay steady?,1478.220276,387,1478.220276,185,373,148,334,1478.220276,154,276,203,1478.220276,1337,359,1392,1041,151,190,243,1277,221,257,345,1467,912,388,337,443,,,,,,,,1189.5,362.5,443,Aspect,15,In,the,"garden,",a,boy,and,a,girl,wanted,to,go,up,into,the,tree-house.,While,the,girl,was,climbing,the,tall,tree,it,started,to,shake,dangerously.,?,?,?,?,?,?,?,1,Prog,LateClosure,549.2456647,464.4873055,0
Spanish,303,26,m,Prog_LateClosure,m,Did the furniture look expensive?,,,,,,,,253,234,254,317,308,289,413,436,618.4513888,529,618.4513888,346,238,333,445,307,286,302,261,381,568,,,,,,,,294,321,568,Aspect,16,,,,,,,,Sarah,and,Jane,owned,a,shop,selling,old,furniture.,When,Sarah,was,polishing,the,cheap,furniture,it,looked,new,and,expensive.,?,?,?,?,?,?,?,1,Prog,LateClosure,353.9235294,132.2639297,0
Spanish,307,41,m,Prog_LateClosure,m,Did the furniture look expensive?,,,,,,,,504,348,360,469,310,372,361,347,405,338,354,372,341,436,367,535,449,368,401,484,459,,,,,,,,408.5,442.5,459,Aspect,16,,,,,,,,Sarah,and,Jane,owned,a,shop,selling,old,furniture.,When,Sarah,was,polishing,the,cheap,furniture,it,looked,new,and,expensive.,?,?,?,?,?,?,?,1,Prog,LateClosure,399.6600985,109.5125911,0
Spanish,315,37,m,Prog_LateClosure,m,Did the furniture look expensive?,,,,,,,,431,429,517,504,771,305,449,367,830.8024525,401,347,352,779,372,421,523,359,830.8024525,516,343,787,,,,,,,,594.9012263,429.5,787,Aspect,16,,,,,,,,Sarah,and,Jane,owned,a,shop,selling,old,furniture.,When,Sarah,was,polishing,the,cheap,furniture,it,looked,new,and,expensive.,?,?,?,?,?,?,?,1,Prog,LateClosure,450.7025316,190.0499604,0
Spanish,319,43,m,Prog_LateClosure,m,Did the furniture look expensive?,,,,,,,,628,209,398,535,370,485,417,329,425,356,235,903.9982783,451,324,447,346,319,354,403,413,678,,,,,,,,336.5,408,678,Aspect,16,,,,,,,,Sarah,and,Jane,owned,a,shop,selling,old,furniture.,When,Sarah,was,polishing,the,cheap,furniture,it,looked,new,and,expensive.,?,?,?,?,?,?,?,1,Prog,LateClosure,434.9712794,234.5134994,0
Spanish,323,14,m,Prog_LateClosure,m,Did the furniture look expensive?,,,,,,,,381,412,432,455,509,438,412,407,842,522,433,357,402,416,421,636,429,476,362,500,560,,,,,,,,452.5,431,560,Aspect,16,,,,,,,,Sarah,and,Jane,owned,a,shop,selling,old,furniture.,When,Sarah,was,polishing,the,cheap,furniture,it,looked,new,and,expensive.,?,?,?,?,?,?,?,1,Prog,LateClosure,461.210396,221.0004095,0
Spanish,327,55,m,Prog_LateClosure,m,Did the furniture look expensive?,,,,,,,,455,333,399,489,455,455,554,540,705,507,312,333,355,938.0019234,395,645,429,400,321,443,584,,,,,,,,414.5,382,584,Aspect,16,,,,,,,,Sarah,and,Jane,owned,a,shop,selling,old,furniture.,When,Sarah,was,polishing,the,cheap,furniture,it,looked,new,and,expensive.,?,?,?,?,?,?,?,1,Prog,LateClosure,498.8251232,219.5884001,0
Spanish,304,65,x,Prog_LateClosure,x,Did the clothes stay whole?,,,,,,,,336,291,253,406,320,275,484,292,278,320,459,292,285,291,278,457,344,321,279,297,565,,,,,,,,332.5,288,565,Aspect,17,,,,,,,,Rita,and,Violet,took,turns,to,do,the,washing.,When,Rita,was,washing,the,delicate,clothes,they,were,torn,to,pieces.,?,?,?,?,?,?,?,1,Prog,LateClosure,386.3974026,246.417828,0
Spanish,308,58,x,Prog_LateClosure,x,Did the clothes stay whole?,,,,,,,,206,204,187,173,242,204,211,210,217,231,585,173,210,200,206,223,249,199,217,259,223,,,,,,,,224,238,223,Aspect,17,,,,,,,,Rita,and,Violet,took,turns,to,do,the,washing.,When,Rita,was,washing,the,delicate,clothes,they,were,torn,to,pieces.,?,?,?,?,?,?,?,1,Prog,LateClosure,332.2416667,209.488663,0
Spanish,316,33,x,Prog_LateClosure,x,Did the clothes stay whole?,,,,,,,,199,223,259,233,226,243,204,215,217,214,234,259,246,235,192,252,261,236,214,151,233,,,,,,,,248.5,182.5,233,Aspect,17,,,,,,,,Rita,and,Violet,took,turns,to,do,the,washing.,When,Rita,was,washing,the,delicate,clothes,they,were,torn,to,pieces.,?,?,?,?,?,?,?,1,Prog,LateClosure,273.3123288,82.14818542,0
Spanish,320,5,x,Prog_LateClosure,x,Did the clothes stay whole?,,,,,,,,313,198,132,136,158,144,115,151,190,111,246,201,181,156,303,262,282,252,199,252,229,,,,,,,,267,225.5,229,Aspect,17,,,,,,,,Rita,and,Violet,took,turns,to,do,the,washing.,When,Rita,was,washing,the,delicate,clothes,they,were,torn,to,pieces.,?,?,?,?,?,?,?,1,Prog,LateClosure,202.6225895,160.1926981,0
Spanish,324,35,x,Prog_LateClosure,x,Did the clothes stay whole?,,,,,,,,407,651,354,347,357,450,375,408,479,406,456,352,346,317,338,408,431,348,544,382,438,,,,,,,,389.5,463,438,Aspect,17,,,,,,,,Rita,and,Violet,took,turns,to,do,the,washing.,When,Rita,was,washing,the,delicate,clothes,they,were,torn,to,pieces.,?,?,?,?,?,?,?,1,Prog,LateClosure,460.0657895,181.1206443,0
Spanish,328,56,x,Prog_LateClosure,x,Did the clothes stay whole?,,,,,,,,156,147,148,172,150,164,170,141,179,180,185,164,177,201,171,182,144,202,169,189,170,,,,,,,,173,179,170,Aspect,17,,,,,,,,Rita,and,Violet,took,turns,to,do,the,washing.,When,Rita,was,washing,the,delicate,clothes,they,were,torn,to,pieces.,?,?,?,?,?,?,?,1,Prog,LateClosure,174.2245431,20.76856741,0
Spanish,301,16,m,Prog_LateClosure,m,Was the eviction notice canceled?,,,,,,,,,,352,240,475.5129936,363,334,347,405,475.5129936,325,347,363,475.5129936,267,475.5129936,326,302,332,328,339,,,,,,,,314,330,339,Aspect,18,,,,,,,,,,The,lawyersÍ,office,was,rather,busy.,As,the,secretary,was,typing,the,eviction,notice,it,was,canceled,very,suddenly.,?,?,?,?,?,?,?,1,Prog,LateClosure,312.5823096,81.465342,0
Spanish,305,14,m,Prog_LateClosure,m,Was the eviction notice canceled?,,,,,,,,,,620,863.360357,863.360357,863.360357,849,863.360357,863.360357,756,737,677,681,696,630,763,601,543,577,407,670,,,,,,,,572,492,670,Aspect,18,,,,,,,,,,The,lawyersÍ,office,was,rather,busy.,As,the,secretary,was,typing,the,eviction,notice,it,was,canceled,very,suddenly.,?,?,?,?,?,?,?,1,Prog,LateClosure,510.9972376,176.1815597,0
Spanish,309,67,m,Prog_LateClosure,m,Was the eviction notice canceled?,,,,,,,,,,296,321,244,158,179,176,180,187,197,171,181,191,194,211,344,223,200,187,176,,,,,,,,283.5,193.5,176,Aspect,18,,,,,,,,,,The,lawyersÍ,office,was,rather,busy.,As,the,secretary,was,typing,the,eviction,notice,it,was,canceled,very,suddenly.,?,?,?,?,?,?,?,1,Prog,LateClosure,237.2635659,123.5790044,0
Spanish,321,84,m,Prog_LateClosure,m,Was the eviction notice canceled?,,,,,,,,,,1591,840,565,506,428,537,1214,500,615,503,544,478,1062,564,506,414,653,434,790,,,,,,,,460,543.5,790,Aspect,18,,,,,,,,,,The,lawyersÍ,office,was,rather,busy.,As,the,secretary,was,typing,the,eviction,notice,it,was,canceled,very,suddenly.,?,?,?,?,?,?,?,1,Prog,LateClosure,627.5027322,509.4642571,0
Spanish,302,16,m,Prog_LateClosure,m,Did the model keep still?,,,152,294,292,230,140,279,325,353,377,241,118,301,283,242,471,99,184,301,561.6179748,177,454,339,324,255,329,283,299,300,,,,,,331.5,291.5,300,Aspect,19,,,Yesterday,in,my,art,"class,",the,model,sat,in,the,same,position,for,hours.,As,I,was,drawing,the,patient,woman,she,tried,very,hard,to,keep,still.,?,?,?,?,?,1,Prog,LateClosure,310.007874,125.8050504,0
Spanish,306,12,m,Prog_LateClosure,m,Did the model keep still?,,,784,479,322,389,391,383,332,482,407,391,417,442,395,398,354,411,296,428,350,405,857.5467213,538,630,544,447,370,410,414,,,,,,584,442.75,414,Aspect,19,,,Yesterday,in,my,art,"class,",the,model,sat,in,the,same,position,for,hours.,As,I,was,drawing,the,patient,woman,she,tried,very,hard,to,keep,still.,?,?,?,?,?,1,Prog,LateClosure,485.7786458,185.8840377,0
Spanish,310,62,m,Prog_LateClosure,m,Did the model keep still?,,,340,411,352,319,450,713,409,365,623,447,570,458,403,377,347,359,366,938,379,487,496,351,488,437,379,415,346,1508.861386,,,,,,419.5,394.25,1508.861386,Aspect,19,,,Yesterday,in,my,art,"class,",the,model,sat,in,the,same,position,for,hours.,As,I,was,drawing,the,patient,woman,she,tried,very,hard,to,keep,still.,?,?,?,?,?,1,Prog,LateClosure,555.8843931,476.4884964,0
Spanish,318,67,m,Prog_LateClosure,m,Did the model keep still?,,,370,457.3590829,293,356,259,288,242,268,263,266,242,251,233,246,280,255,260,457.3590829,276,250,286,271,274,244,269,278,299,269,,,,,,272.5,272.5,269,Aspect,19,,,Yesterday,in,my,art,"class,",the,model,sat,in,the,same,position,for,hours.,As,I,was,drawing,the,patient,woman,she,tried,very,hard,to,keep,still.,?,?,?,?,?,1,Prog,LateClosure,308.3989071,74.48008792,0
Spanish,322,55,m,Prog_LateClosure,m,Did the model keep still?,,,192,261,263,155,363.7812369,179,139,218,172,214,210,198,353,220,140,99,220,162,215,196,190,225,195,166,363.7812369,164,327,197,,,,,,210,255.1953092,197,Aspect,19,,,Yesterday,in,my,art,"class,",the,model,sat,in,the,same,position,for,hours.,As,I,was,drawing,the,patient,woman,she,tried,very,hard,to,keep,still.,?,?,?,?,?,1,Prog,LateClosure,221.8027397,70.9892486,0
Spanish,326,84,m,Prog_LateClosure,m,Did the model keep still?,,,437,401,224,288,263,472,243,206,314,265,255,233,309,300,484,205,258,210,234,236,265,266,525,292,267,287,269,242,,,,,,395.5,278.75,242,Aspect,19,,,Yesterday,in,my,art,"class,",the,model,sat,in,the,same,position,for,hours.,As,I,was,drawing,the,patient,woman,she,tried,very,hard,to,keep,still.,?,?,?,?,?,1,Prog,LateClosure,549.2456647,464.4873055,0
Spanish,307,38,x,Prog_LateClosure,x,Did Mrs. Brown park well?,,,,,,,573,388,297,384,310,618.6852808,315,355,337,323,317,345,278,406,297,319,364,345,353,371,296,340,618.6852808,,,,,,,349,335.6666667,618.6852808,Aspect,20,,,,,,,The,driving,instructor,almost,gave,up,on,Mrs.,Brown.,When,the,woman,was,parking,the,new,car,it,was,always,at,an,angle.,?,?,?,?,?,?,1,Prog,LateClosure,399.6600985,109.5125911,0
Spanish,323,24,x,Prog_LateClosure,x,Did Mrs. Brown park well?,,,,,,,303,297,283,304,670,321,365,376,389,339,352,323,336,333,315,321,313,431,386,335,326,334,789,,,,,,,408.5,331.6666667,789,Aspect,20,,,,,,,The,driving,instructor,almost,gave,up,on,Mrs.,Brown.,When,the,woman,was,parking,the,new,car,it,was,always,at,an,angle.,?,?,?,?,?,?,1,Prog,LateClosure,461.210396,221.0004095,0
Spanish,327,4,x,Prog_LateClosure,x,Did Mrs. Brown park well?,,,,,,,594,415,608,728,938.0019234,512,548,834,570,449,606,435,667,938.0019234,524,583,552,520,464,613,558,938.0019234,938.0019234,,,,,,,492,703.0006411,938.0019234,Aspect,20,,,,,,,The,driving,instructor,almost,gave,up,on,Mrs.,Brown.,When,the,woman,was,parking,the,new,car,it,was,always,at,an,angle.,?,?,?,?,?,?,1,Prog,LateClosure,498.8251232,219.5884001,0
Spanish,302,24,m,Simple_EarlyClosure,m,Did Alice and Jim decorate their house every year?,,,,,,,,,,279,162,561.6179748,102,356,319,561.6179748,347,424,363,353,467,228,345,238,191,341,301,358,,,,,,,,238,277.6666667,358,Aspect,2,,,,,,,,,,Alice,and,Jim,decorated,their,house,every,year.,When,Alice,painted,the,kitchen,walls,were,covered,with,many,drops.,?,?,?,?,?,?,?,1,Simple,EarlyClosure,310.007874,125.8050504,0
Spanish,306,29,m,Simple_EarlyClosure,m,Did Alice and Jim decorate their house every year?,,,,,,,,,,573,426,489,857.5467213,529,364,345,316,449,362,422,397,694,461,530,843,398,398,377,,,,,,,,530,546.3333333,377,Aspect,2,,,,,,,,,,Alice,and,Jim,decorated,their,house,every,year.,When,Alice,painted,the,kitchen,walls,were,covered,with,many,drops.,?,?,?,?,?,?,?,1,Simple,EarlyClosure,485.7786458,185.8840377,0
Spanish,322,11,m,Simple_EarlyClosure,m,Did Alice and Jim decorate their house every year?,,,,,,,,,,190,275,179,363.7812369,173,281,363.7812369,300,363.7812369,232,227,188,273,172,257,331,234,257,253,,,,,,,,257,274,253,Aspect,2,,,,,,,,,,Alice,and,Jim,decorated,their,house,every,year.,When,Alice,painted,the,kitchen,walls,were,covered,with,many,drops.,?,?,?,?,?,?,?,1,Simple,EarlyClosure,221.8027397,70.9892486,0
Spanish,303,70,x,Simple_EarlyClosure,x,Did Tony hate to sing at parties?,,,,,,,,,406,389,279,299,270,288,264,254,267,618.4513888,315,291,297,618.4513888,476,571,264,287,,,,,,,,,,571,264,287,Aspect,3,,,,,,,,,Tony,and,his,friends,loved,to,sing,at,parties.,When,Tony,sang,the,drinking,song,sounded,like,opera.,?,?,?,?,?,?,?,?,?,1,Simple,EarlyClosure,353.9235294,132.2639297,0
Spanish,307,55,x,Simple_EarlyClosure,x,Did Tony hate to sing at parties?,,,,,,,,,405,277,325,329,322,376,381,323,332,326,370,310,308,321,345,381,317,475,,,,,,,,,,381,317,475,Aspect,3,,,,,,,,,Tony,and,his,friends,loved,to,sing,at,parties.,When,Tony,sang,the,drinking,song,sounded,like,opera.,?,?,?,?,?,?,?,?,?,1,Simple,EarlyClosure,399.6600985,109.5125911,0
Spanish,315,17,x,Simple_EarlyClosure,x,Did Tony hate to sing at parties?,,,,,,,,,364,357,507,288,255,323,302,256,396,830.8024525,229,302,233,457,669,469,493,467,,,,,,,,,,469,493,467,Aspect,3,,,,,,,,,Tony,and,his,friends,loved,to,sing,at,parties.,When,Tony,sang,the,drinking,song,sounded,like,opera.,?,?,?,?,?,?,?,?,?,1,Simple,EarlyClosure,450.7025316,190.0499604,0
Spanish,319,39,x,Simple_EarlyClosure,x,Did Tony hate to sing at parties?,,,,,,,,,283,267,399,207,306,264,393,270,382,429,171,418,338,359,323,734,593,903.9982783,,,,,,,,,,734,593,903.9982783,Aspect,3,,,,,,,,,Tony,and,his,friends,loved,to,sing,at,parties.,When,Tony,sang,the,drinking,song,sounded,like,opera.,?,?,?,?,?,?,?,?,?,1,Simple,EarlyClosure,434.9712794,234.5134994,0
Spanish,323,11,x,Simple_EarlyClosure,x,Did Tony hate to sing at parties?,,,,,,,,,444,444,442,443,433,461,499,477,767,519,501,385,485,833,763,870,812,903.211215,,,,,,,,,,870,812,903.211215,Aspect,3,,,,,,,,,Tony,and,his,friends,loved,to,sing,at,parties.,When,Tony,sang,the,drinking,song,sounded,like,opera.,?,?,?,?,?,?,?,?,?,1,Simple,EarlyClosure,461.210396,221.0004095,0
Spanish,327,57,x,Simple_EarlyClosure,x,Did Tony hate to sing at parties?,,,,,,,,,291,297,348,329,366,520,326,436,340,528,321,429,499,656,509,766,369,462,,,,,,,,,,766,369,462,Aspect,3,,,,,,,,,Tony,and,his,friends,loved,to,sing,at,parties.,When,Tony,sang,the,drinking,song,sounded,like,opera.,?,?,?,?,?,?,?,?,?,1,Simple,EarlyClosure,498.8251232,219.5884001,0
Spanish,304,63,m,Simple_EarlyClosure,m,Did John and Sam take their guns into the woods?,,,,,,,,363,218,217,193,378,325,411,879.2330586,333,297,879.2330586,389,423,311,471,341,346,600,386,309,299,,,,,,,,346,431.6666667,299,Aspect,4,,,,,,,,John,and,Sam,took,their,guns,out,into,the,woods.,As,John,hunted,the,frightened,rabbit,escaped,through,the,dark,trees.,?,?,?,?,?,?,?,1,Simple,EarlyClosure,386.3974026,246.417828,0
Spanish,308,24,m,Simple_EarlyClosure,m,Did John and Sam take their guns into the woods?,,,,,,,,263,232,249,249,574,319,353,286,222,320,751.2189927,242,243,326,288,751.2189927,465,504,380,280,283,,,,,,,,465,388,283,Aspect,4,,,,,,,,John,and,Sam,took,their,guns,out,into,the,woods.,As,John,hunted,the,frightened,rabbit,escaped,through,the,dark,trees.,?,?,?,?,?,?,?,1,Simple,EarlyClosure,332.2416667,209.488663,0
Spanish,312,18,m,Simple_EarlyClosure,m,Did John and Sam take their guns into the woods?,,,,,,,,448,455,375,350,393,390,424,365,300,364,398,279,329,390,622.0794733,552,553,350,301,271,423,,,,,,,,553,307.3333333,423,Aspect,4,,,,,,,,John,and,Sam,took,their,guns,out,into,the,woods.,As,John,hunted,the,frightened,rabbit,escaped,through,the,dark,trees.,?,?,?,?,?,?,?,1,Simple,EarlyClosure,370.1246291,125.9774221,0
Spanish,316,42,m,Simple_EarlyClosure,m,Did John and Sam take their guns into the woods?,,,,,,,,201,188,213,291,217,249,218,250,245,247,206,191,199,226,217,431,216,227,243,246,256,,,,,,,,216,238.6666667,256,Aspect,4,,,,,,,,John,and,Sam,took,their,guns,out,into,the,woods.,As,John,hunted,the,frightened,rabbit,escaped,through,the,dark,trees.,?,?,?,?,?,?,?,1,Simple,EarlyClosure,273.3123288,82.14818542,0
Spanish,320,73,m,Simple_EarlyClosure,m,Did John and Sam take their guns into the woods?,,,,,,,,116,153,135,76,523.0079858,212,514,523.0079858,452,141,167,153,373,77,169,159,127,167,130,183,138,,,,,,,,127,160,138,Aspect,4,,,,,,,,John,and,Sam,took,their,guns,out,into,the,woods.,As,John,hunted,the,frightened,rabbit,escaped,through,the,dark,trees.,?,?,?,?,?,?,?,1,Simple,EarlyClosure,202.6225895,160.1926981,0
Spanish,324,21,m,Simple_EarlyClosure,m,Did John and Sam take their guns into the woods?,,,,,,,,350,282,176,567,418,206,415,486,351,347,450,200,561,311,781,445,528,620,430,350,462,,,,,,,,528,466.6666667,462,Aspect,4,,,,,,,,John,and,Sam,took,their,guns,out,into,the,woods.,As,John,hunted,the,frightened,rabbit,escaped,through,the,dark,trees.,?,?,?,?,?,?,?,1,Simple,EarlyClosure,460.0657895,181.1206443,0
Spanish,328,4,m,Simple_EarlyClosure,m,Did John and Sam take their guns into the woods?,,,,,,,,215.7616779,171,177,173,195,155,179,196,194,206,185,170,201,164,215.7616779,170,198,195,202,215.7616779,162,,,,,,,,198,204.2538926,162,Aspect,4,,,,,,,,John,and,Sam,took,their,guns,out,into,the,woods.,As,John,hunted,the,frightened,rabbit,escaped,through,the,dark,trees.,?,?,?,?,?,?,?,1,Simple,EarlyClosure,174.2245431,20.76856741,0
Spanish,301,63,x,Simple_EarlyClosure,x,Did Susan and her children live near her parents?,,,,,,,,,242,261,245,249,237,242,240,260,226,261,234,248,242,253,241,253,279,248,250,260,,,,,,,,253,259,260,Aspect,5,,,,,,,,,Susan,and,her,children,lived,far,from,her,parents.,When,Susan,visited,the,friendly,neighbors,wanted,to,have,a,party.,?,?,?,?,?,?,?,1,Simple,EarlyClosure,312.5823096,81.465342,0
Spanish,305,24,x,Simple_EarlyClosure,x,Did Susan and her children live near her parents?,,,,,,,,,460,384,366,407,449,792,519,419,594,533,491,424,464,482,549,502,473,422,503,631,,,,,,,,502,466,631,Aspect,5,,,,,,,,,Susan,and,her,children,lived,far,from,her,parents.,When,Susan,visited,the,friendly,neighbors,wanted,to,have,a,party.,?,?,?,?,?,?,?,1,Simple,EarlyClosure,510.9972376,176.1815597,0
Spanish,321,79,x,Simple_EarlyClosure,x,Did Susan and her children live near her parents?,,,,,,,,,352,552,448,465,414,474,434,403,773,1597,436,724,542,530,525,486,395,430,400,806,,,,,,,,486,408.3333333,806,Aspect,5,,,,,,,,,Susan,and,her,children,lived,far,from,her,parents.,When,Susan,visited,the,friendly,neighbors,wanted,to,have,a,party.,?,?,?,?,?,?,?,1,Simple,EarlyClosure,627.5027322,509.4642571,0
Spanish,302,23,x,Simple_EarlyClosure,x,Was the flat tidy?,,,,,,,,,,561.6179748,318,149,305,289,280,206,310,296,225,364,311,293,305,291,266,285,275,,,,,,,,,291,275.5,275,Aspect,6,,,,,,,,,,The,flat,was,very,old,and,dirty.,Even,when,Joe,cleaned,the,small,kitchen,smelled,like,old,rubbish.,?,?,?,?,?,?,?,?,1,Simple,EarlyClosure,310.007874,125.8050504,0
Spanish,306,74,x,Simple_EarlyClosure,x,Was the flat tidy?,,,,,,,,,,419,318,438,394,394,362,621,326,336,765,662,363,397,747,604,441,348,668,,,,,,,,,604,394.5,668,Aspect,6,,,,,,,,,,The,flat,was,very,old,and,dirty.,Even,when,Joe,cleaned,the,small,kitchen,smelled,like,old,rubbish.,?,?,?,?,?,?,?,?,1,Simple,EarlyClosure,485.7786458,185.8840377,0
Spanish,318,58,x,Simple_EarlyClosure,x,Was the flat tidy?,,,,,,,,,,291,277,280,286,266,256,288,282,287,299,290,293,311,232,289,457.3590829,227,285,,,,,,,,,289,342.1795415,285,Aspect,6,,,,,,,,,,The,flat,was,very,old,and,dirty.,Even,when,Joe,cleaned,the,small,kitchen,smelled,like,old,rubbish.,?,?,?,?,?,?,?,?,1,Simple,EarlyClosure,308.3989071,74.48008792,0
Spanish,322,17,x,Simple_EarlyClosure,x,Was the flat tidy?,,,,,,,,,,220,229,202,246,209,267,275,224,221,211,207,274,264,227,234,191,240,363.7812369,,,,,,,,,234,215.5,363.7812369,Aspect,6,,,,,,,,,,The,flat,was,very,old,and,dirty.,Even,when,Joe,cleaned,the,small,kitchen,smelled,like,old,rubbish.,?,?,?,?,?,?,?,?,1,Simple,EarlyClosure,221.8027397,70.9892486,0
Spanish,326,18,x,Simple_EarlyClosure,x,Was the flat tidy?,,,,,,,,,,334,486,265,234,235,1478.220276,1271,1367,258,384,219,454,546,388,718,628,361,937,,,,,,,,,718,494.5,937,Aspect,6,,,,,,,,,,The,flat,was,very,old,and,dirty.,Even,when,Joe,cleaned,the,small,kitchen,smelled,like,old,rubbish.,?,?,?,?,?,?,?,?,1,Simple,EarlyClosure,549.2456647,464.4873055,0
Spanish,303,81,m,Simple_EarlyClosure,m,Did the couple want to leave?,,,,,223,183,237,286,286,293,260,282,278,277,254,367,538,285,289,325,339,317,410,567,549,302,327,,,,,,,,,567,425.5,327,Aspect,7,,,,,The,couple,sitting,next,to,me,at,the,restaurant,got,up,to,leave.,As,I,watched,the,drunk,man,tripped,over,my,chair.,?,?,?,?,?,?,?,?,1,Simple,EarlyClosure,353.9235294,132.2639297,0
Spanish,307,19,m,Simple_EarlyClosure,m,Did the couple want to leave?,,,,,361,328,393,383,400,323,364,364,349,339,299,348,490,337,283,364,379,460,353,364,379,330,503,,,,,,,,,364,354.5,503,Aspect,7,,,,,The,couple,sitting,next,to,me,at,the,restaurant,got,up,to,leave.,As,I,watched,the,drunk,man,tripped,over,my,chair.,?,?,?,?,?,?,?,?,1,Simple,EarlyClosure,399.6600985,109.5125911,0
Spanish,315,36,m,Simple_EarlyClosure,m,Did the couple want to leave?,,,,,370,370,357,830.8024525,429,316,336,573,830.8024525,830.8024525,683,830.8024525,390,596,300,503,341,500,427,428,349,333,331,,,,,,,,,428,341,331,Aspect,7,,,,,The,couple,sitting,next,to,me,at,the,restaurant,got,up,to,leave.,As,I,watched,the,drunk,man,tripped,over,my,chair.,?,?,?,?,?,?,?,?,1,Simple,EarlyClosure,450.7025316,190.0499604,0
Spanish,319,73,m,Simple_EarlyClosure,m,Did the couple want to leave?,,,,,270,372,314,434,395,355,520,417,513,616,289,295,903.9982783,511,228,412,289,310,323,636,419,437,903.9982783,,,,,,,,,636,428,903.9982783,Aspect,7,,,,,The,couple,sitting,next,to,me,at,the,restaurant,got,up,to,leave.,As,I,watched,the,drunk,man,tripped,over,my,chair.,?,?,?,?,?,?,?,?,1,Simple,EarlyClosure,434.9712794,234.5134994,0
Spanish,323,77,m,Simple_EarlyClosure,m,Did the couple want to leave?,,,,,184,222,312,231,259,275,272,330,442,281,284,336,352,348,245,272,266,296,300,295,325,488,312,,,,,,,,,295,406.5,312,Aspect,7,,,,,The,couple,sitting,next,to,me,at,the,restaurant,got,up,to,leave.,As,I,watched,the,drunk,man,tripped,over,my,chair.,?,?,?,?,?,?,?,?,1,Simple,EarlyClosure,461.210396,221.0004095,0
Spanish,327,34,m,Simple_EarlyClosure,m,Did the couple want to leave?,,,,,426,425,548,527,451,574,423,339,655,413,369,426,938.0019234,330,296,372,312,353,305,319,382,313,350,,,,,,,,,319,347.5,350,Aspect,7,,,,,The,couple,sitting,next,to,me,at,the,restaurant,got,up,to,leave.,As,I,watched,the,drunk,man,tripped,over,my,chair.,?,?,?,?,?,?,?,?,1,Simple,EarlyClosure,498.8251232,219.5884001,0
Spanish,308,42,x,Simple_EarlyClosure,x,Were there three Italian chefs working at the restaurant?,,,,,,,,,536,213,244,707,213,246,253,239,210,751.2189927,751.2189927,261,251,223,206,262,257,275,316,751.2189927,,,,,,,,262,282.6666667,751.2189927,Aspect,8,,,,,,,,,There,were,two,Italian,chefs,working,in,the,restaurant.,Because,Mario,cooked,the,fresh,pasta,was,made,to,real,perfection.,?,?,?,?,?,?,?,1,Simple,EarlyClosure,332.2416667,209.488663,0
Spanish,328,54,x,Simple_EarlyClosure,x,Were there three Italian chefs working at the restaurant?,,,,,,,,,143,182,183,174,172,172,168,182,170,145,182,149,157,164,169,140,174,158,161,189,,,,,,,,140,164.3333333,189,Aspect,8,,,,,,,,,There,were,two,Italian,chefs,working,in,the,restaurant.,Because,Mario,cooked,the,fresh,pasta,was,made,to,real,perfection.,?,?,?,?,?,?,?,1,Simple,EarlyClosure,174.2245431,20.76856741,0
Spanish,301,66,m,Simple_EarlyClosure,m,Were there different kinds of vehicles at the company?,,,,,,,,258,250,312,249,242,210,269,248,316,247,254,290,247,293,310,293,475,254,253,285,262,,,,,,,,475,264,262,Aspect,9,,,,,,,,There,were,many,different,kinds,of,vehicles,at,the,company.,When,George,drove,the,big,lorry,made,loud,and,strange,noises,?,?,?,?,?,?,?,1,Simple,EarlyClosure,312.5823096,81.465342,0
Spanish,305,81,m,Simple_EarlyClosure,m,Were there different kinds of vehicles at the company?,,,,,,,,379,321,256,274,320,307,367,379,345,323,349,311,457,398,469,683,467,454,531,570,486,,,,,,,,467,518.3333333,486,Aspect,9,,,,,,,,There,were,many,different,kinds,of,vehicles,at,the,company.,When,George,drove,the,big,lorry,made,loud,and,strange,noises,?,?,?,?,?,?,?,1,Simple,EarlyClosure,510.9972376,176.1815597,0
Spanish,309,20,m,Simple_EarlyClosure,m,Were there different kinds of vehicles at the company?,,,,,,,,315,294,239,266,288,303,265,282,276,252,259,245,258,303,254,256,292,256,300,306,265,,,,,,,,292,287.3333333,265,Aspect,9,,,,,,,,There,were,many,different,kinds,of,vehicles,at,the,company.,When,George,drove,the,big,lorry,made,loud,and,strange,noises,?,?,?,?,?,?,?,1,Simple,EarlyClosure,237.2635659,123.5790044,0
Spanish,321,13,m,Simple_EarlyClosure,m,Were there different kinds of vehicles at the company?,,,,,,,,682,633,1052,701,792,640,857,585,542,684,713,637,896,564,562,786,1041,675,962,695,1232,,,,,,,,1041,777.3333333,1232,Aspect,9,,,,,,,,There,were,many,different,kinds,of,vehicles,at,the,company.,When,George,drove,the,big,lorry,made,loud,and,strange,noises,?,?,?,?,?,?,?,1,Simple,EarlyClosure,627.5027322,509.4642571,0
Spanish,302,47,m,Simple_EarlyClosure,m,Did the opera company have three different conductors?,,,,,,,,,,280,148,196,217,155,167,214,281,561.6179748,288,349,344,146,328,324,322,310,446,268,,,,,,,,324,359.3333333,268,Aspect,10,,,,,,,,,,The,opera,company,had,three,different,conductors.,When,Mr.,Osaka,conducted,the,symphony,orchestra,played,better,than,anyone,else.,?,?,?,?,?,?,?,1,Simple,EarlyClosure,310.007874,125.8050504,0
Spanish,306,60,m,Simple_EarlyClosure,m,Did the opera company have three different conductors?,,,,,,,,,,344,253,281,328,264,380,259,803,339,370,681,279,702,311,421,429,333,423,352,,,,,,,,421,395,352,Aspect,10,,,,,,,,,,The,opera,company,had,three,different,conductors.,When,Mr.,Osaka,conducted,the,symphony,orchestra,played,better,than,anyone,else.,?,?,?,?,?,?,?,1,Simple,EarlyClosure,485.7786458,185.8840377,0
Spanish,310,78,m,Simple_EarlyClosure,m,Did the opera company have three different conductors?,,,,,,,,,,349,368,296,336,332,452,271,407,301,337,557,510,369,1268,404,426,523,786,1508.861386,,,,,,,,404,578.3333333,1508.861386,Aspect,10,,,,,,,,,,The,opera,company,had,three,different,conductors.,When,Mr.,Osaka,conducted,the,symphony,orchestra,played,better,than,anyone,else.,?,?,?,?,?,?,?,1,Simple,EarlyClosure,555.8843931,476.4884964,0
Spanish,318,57,m,Simple_EarlyClosure,m,Did the opera company have three different conductors?,,,,,,,,,,296,349,311,335,359,347,305,348,370,290,299,295,327,297,314,290,312,310,342,,,,,,,,314,304,342,Aspect,10,,,,,,,,,,The,opera,company,had,three,different,conductors.,When,Mr.,Osaka,conducted,the,symphony,orchestra,played,better,than,anyone,else.,?,?,?,?,?,?,?,1,Simple,EarlyClosure,308.3989071,74.48008792,0
Spanish,322,12,m,Simple_EarlyClosure,m,Did the opera company have three different conductors?,,,,,,,,,,151,270,183,212,230,363.7812369,215,230,207,217,269,222,218,243,204,261,245,235,190,,,,,,,,204,247,190,Aspect,10,,,,,,,,,,The,opera,company,had,three,different,conductors.,When,Mr.,Osaka,conducted,the,symphony,orchestra,played,better,than,anyone,else.,?,?,?,?,?,?,?,1,Simple,EarlyClosure,221.8027397,70.9892486,0
Spanish,326,64,m,Simple_EarlyClosure,m,Did the opera company have three different conductors?,,,,,,,,,,408,238,268,614,229,421,292,603,305,564,572,317,535,604,624,305,373,273,427,,,,,,,,624,317,427,Aspect,10,,,,,,,,,,The,opera,company,had,three,different,conductors.,When,Mr.,Osaka,conducted,the,symphony,orchestra,played,better,than,anyone,else.,?,?,?,?,?,?,?,1,Simple,EarlyClosure,549.2456647,464.4873055,0
Spanish,303,71,m,Simple_EarlyClosure,m,Was the town safe?,,,,,,,,269,226,224,253,242,241,231,246,229,457,310,612,244,618.4513888,305,410,618.4513888,363,387,387,,,,,,,,,618.4513888,375,387,Aspect,11,,,,,,,,On,Saturday,"nights,",the,police,department,was,very,busy.,When,the,sheriff,patrolled,the,whole,town,was,safe,and,secure.,,?,?,?,?,?,?,?,1,Simple,EarlyClosure,353.9235294,132.2639297,0
Spanish,307,49,m,Simple_EarlyClosure,m,Was the town safe?,,,,,,,,595,618.6852808,302,461,307,575,299,327,346,331,318,295,349,306,338,312,367,618.6852808,335,337,,,,,,,,,367,476.8426404,337,Aspect,11,,,,,,,,On,Saturday,"nights,",the,police,department,was,very,busy.,When,the,sheriff,patrolled,the,whole,town,was,safe,and,secure.,,?,?,?,?,?,?,?,1,Simple,EarlyClosure,399.6600985,109.5125911,0
Spanish,315,31,m,Simple_EarlyClosure,m,Was the town safe?,,,,,,,,333,622,304,374,483,299,310,322,292,350,339,346,631,306,284,346,478,360,390,392,,,,,,,,,478,375,392,Aspect,11,,,,,,,,On,Saturday,"nights,",the,police,department,was,very,busy.,When,the,sheriff,patrolled,the,whole,town,was,safe,and,secure.,,?,?,?,?,?,?,?,1,Simple,EarlyClosure,450.7025316,190.0499604,0
Spanish,319,37,m,Simple_EarlyClosure,m,Was the town safe?,,,,,,,,267,166,330,339,250,634,194,329,288,433,182,365,349,308,440,288,337,848,471,691,,,,,,,,,337,659.5,691,Aspect,11,,,,,,,,On,Saturday,"nights,",the,police,department,was,very,busy.,When,the,sheriff,patrolled,the,whole,town,was,safe,and,secure.,,?,?,?,?,?,?,?,1,Simple,EarlyClosure,434.9712794,234.5134994,0
Spanish,323,5,m,Simple_EarlyClosure,m,Was the town safe?,,,,,,,,744,511,903.211215,840,903.211215,903.211215,829,813,646,578,472,688,749,706,714,462,444,651,884,903.211215,,,,,,,,,444,767.5,903.211215,Aspect,11,,,,,,,,On,Saturday,"nights,",the,police,department,was,very,busy.,When,the,sheriff,patrolled,the,whole,town,was,safe,and,secure.,,?,?,?,?,?,?,?,1,Simple,EarlyClosure,461.210396,221.0004095,0
Spanish,327,29,m,Simple_EarlyClosure,m,Was the town safe?,,,,,,,,325,417,347,450,458,862,386,376,662,376,410,539,396,508,424,468,416,420,470,460,,,,,,,,,416,445,460,Aspect,11,,,,,,,,On,Saturday,"nights,",the,police,department,was,very,busy.,When,the,sheriff,patrolled,the,whole,town,was,safe,and,secure.,,?,?,?,?,?,?,?,1,Simple,EarlyClosure,498.8251232,219.5884001,0
Spanish,304,8,m,Simple_EarlyClosure,m,Did the horse jump a fence?,,,,,,,,,,331,792,532,493,641,414,388,879.2330586,451,377,431,335,397,560,620,397,456,352,380,474,,,,,,,620,396.25,474,Aspect,12,,,,,,,,,,Jenny,and,Sam,went,out,for,a,ride.,While,Jenny,rode,the,young,horse,decided,to,jump,a,high,fence.,?,?,?,?,?,?,1,Simple,EarlyClosure,386.3974026,246.417828,0
Spanish,308,62,m,Simple_EarlyClosure,m,Did the horse jump a fence?,,,,,,,,,,270,214,190,201,223,224,202,219,226,641,213,233,218,241,543,209,211,179,188,272,,,,,,,543,196.75,272,Aspect,12,,,,,,,,,,Jenny,and,Sam,went,out,for,a,ride.,While,Jenny,rode,the,young,horse,decided,to,jump,a,high,fence.,?,?,?,?,?,?,1,Simple,EarlyClosure,332.2416667,209.488663,0
Spanish,312,32,m,Simple_EarlyClosure,m,Did the horse jump a fence?,,,,,,,,,,448,298,397,584,331,497,336,350,541,385,360,364,323,349,416,321,310,411,417,573,,,,,,,416,364.75,573,Aspect,12,,,,,,,,,,Jenny,and,Sam,went,out,for,a,ride.,While,Jenny,rode,the,young,horse,decided,to,jump,a,high,fence.,?,?,?,?,?,?,1,Simple,EarlyClosure,370.1246291,125.9774221,0
Spanish,316,64,m,Simple_EarlyClosure,m,Did the horse jump a fence?,,,,,,,,,,223,326,249,250,272,216,204,258,204,263,211,212,212,237,203,218,202,242,216,244,,,,,,,203,219.5,244,Aspect,12,,,,,,,,,,Jenny,and,Sam,went,out,for,a,ride.,While,Jenny,rode,the,young,horse,decided,to,jump,a,high,fence.,?,?,?,?,?,?,1,Simple,EarlyClosure,273.3123288,82.14818542,0
Spanish,320,23,m,Simple_EarlyClosure,m,Did the horse jump a fence?,,,,,,,,,,152,138,154,137,144,157,163,161,107,174,172,177,175,209,165,174,158,137,193,249,,,,,,,165,165.5,249,Aspect,12,,,,,,,,,,Jenny,and,Sam,went,out,for,a,ride.,While,Jenny,rode,the,young,horse,decided,to,jump,a,high,fence.,?,?,?,?,?,?,1,Simple,EarlyClosure,202.6225895,160.1926981,0
